Time (s),Gyroscope X (deg/s),Gyroscope Y (deg/s),Gyroscope Z (deg/s),Accelerometer X (g),Accelerometer Y (g),Accelerometer Z (g),Magnetometer X (uT),Magnetometer Y (uT),Magnetometer Z (uT),Barometer (hPa)
0.003711224,0.2907836,-0.1669942,-0.3262229,0.3534623,0.08279075,0.9454361,-20.86392,-5.015363,-65.78914,1008.913
0.008641243,0.04588758,-0.04701699,-0.3871456,0.358199,0.1011952,0.9489797,-20.86392,-5.015363,-65.78914,1008.911
0.013571262,-0.2602325,0.01297158,0.4657727,0.3473152,0.05281493,0.9255358,-20.86392,-5.015363,-65.78914,1008.911
0.018501759,-0.01533645,-0.2269827,0.03931354,0.3396095,0.05027429,0.9493827,-20.86392,-5.015363,-65.78914,1008.911
0.023431778,0.6581278,-0.5269256,-0.0216092,0.3586065,0.02972973,0.9047276,-20.86392,-5.015363,-65.78914,1008.911
0.028361797,-0.07656047,0.2529259,-0.9963729,0.3601843,0.09061085,0.9335827,-20.86392,-5.015363,-65.78914,1008.911
0.033291340,-0.01533645,0.3129145,-0.4480684,0.3532726,0.1089242,0.9419195,-20.86392,-5.015363,-65.78914,1008.911
0.038222313,-0.1990085,-0.1070056,0.2220818,0.346892,0.1214288,0.9525747,-20.86392,-5.015363,-65.78914,1008.911
0.043152332,0.04588758,-0.2269827,1.135923,0.3442722,0.07309455,0.9319791,-20.86392,-5.015363,-65.78914,1008.911
0.048081875,-0.07656047,-0.04701699,0.5876182,0.3531922,0.04895378,0.9355022,-20.86392,-5.015363,-65.78914,1008.91
0.053011894,0.04588758,-0.04701699,-0.1434547,0.3454846,0.03875236,0.9325357,-20.14055,-4.262837,-66.18811,1008.91
0.057941914,-0.07656047,0.1329487,-0.5089911,0.3501129,0.07359557,0.9391324,-20.14055,-4.262837,-66.18811,1008.91
0.062872410,0.2295596,-0.1070056,-0.08253194,0.3495677,0.08086121,0.934922,-20.14055,-4.262837,-66.18811,1008.91
0.067802429,0.1683356,0.1329487,0.161159,0.3476354,0.08226995,0.9449638,-20.14055,-4.262837,-66.18811,1008.91
0.072732449,0.1683356,0.07296016,0.1002363,0.3491581,0.07260754,0.9438951,-20.14055,-4.262837,-66.18811,1008.91
0.077662468,-0.2602325,-0.2269827,-0.3871456,0.3544029,0.08667277,0.94357,-20.14055,-4.262837,-66.18811,1008.91
0.082592964,-0.07656047,0.1329487,0.1002363,0.353885,0.08958897,0.9378778,-20.14055,-4.262837,-66.18811,1008.91
0.087522984,-0.07656047,0.01297158,0.3439272,0.3472122,0.07116185,0.9376781,-20.14055,-4.262837,-66.18811,1008.912
0.092453003,-0.01533645,-0.1070056,0.40485,0.3434776,0.05176247,0.9455746,-20.14055,-4.262837,-66.18811,1008.912
0.097383022,-0.07656047,-0.04701699,0.03931354,0.3459302,0.04551809,0.9359534,-20.14055,-4.262837,-66.18811,1008.912
0.102313519,0.2295596,-0.04701699,-0.2653002,0.3554727,0.06929691,0.9323915,-20.87529,-4.263113,-65.79768,1008.912
0.107243538,0.1071116,0.01297158,-0.2043774,0.3461821,0.08225469,0.9468752,-20.87529,-4.263113,-65.79768,1008.912
0.112173557,-0.01533645,-0.1669942,-0.08253194,0.3524723,0.08472639,0.943074,-20.87529,-4.263113,-65.79768,1008.912
0.117103577,-0.1990085,-0.2269827,0.03931354,0.3525075,0.07797093,0.9372693,-20.87529,-4.263113,-65.79768,1008.912
0.122034073,0.04588758,0.07296016,0.161159,0.3506033,0.07407121,0.9429548,-20.87529,-4.263113,-65.79768,1008.912
0.126964092,0.04588758,-0.1070056,0.1002363,0.3491771,0.06874889,0.9400328,-20.87529,-4.263113,-65.79768,1008.911
0.131889820,-0.07656047,-0.2269827,-0.1434547,0.3433671,0.06580938,0.9395326,-20.87529,-4.263113,-65.79768,1008.911
0.139285088,0.04588758,-0.04701699,-0.0216092,0.351666,0.05814235,0.9332247,-20.87529,-4.263113,-65.79768,1008.911
0.144215107,0.1071116,0.1329487,-0.2043774,0.3506589,0.0653709,0.9404683,-20.87529,-4.263113,-65.79768,1008.911
0.149145126,0.2295596,-0.04701699,-0.3871456,0.3549752,0.07410006,0.9429469,-20.87529,-4.263113,-65.79768,1008.911
0.154075623,0.1683356,-0.1669942,-0.1434547,0.3500553,0.0822987,0.9406644,-20.11957,-5.013196,-65.80329,1008.911
0.159005642,-0.01533645,-0.1070056,-0.08253194,0.3509906,0.08666728,0.9378496,-20.11957,-5.013196,-65.80329,1008.911
0.163935661,0.1071116,0.01297158,0.1002363,0.3534875,0.07604943,0.9348592,-20.11957,-5.013196,-65.80329,1008.911
0.168865681,-0.07656047,-0.04701699,0.161159,0.3496628,0.0687521,0.9400319,-20.11957,-5.013196,-65.80329,1008.909
0.173796177,0.1071116,0.01297158,0.161159,0.3491952,0.06584927,0.9390449,-20.11957,-5.013196,-65.80329,1008.909
0.178726196,-0.01533645,-0.1070056,0.03931354,0.3501718,0.0620168,0.9284998,-20.11957,-5.013196,-65.80329,1008.909
0.183656216,0.1071116,-0.1669942,-0.0216092,0.3511388,0.06777728,0.9457448,-20.11957,-5.013196,-65.80329,1008.909
0.188586712,0.1071116,-0.1669942,-0.08253194,0.3466974,0.07646853,0.941558,-20.11957,-5.013196,-65.80329,1008.909
0.193516731,0.04588758,-0.1669942,-0.0216092,0.3510423,0.08036731,0.9415948,-20.11957,-5.013196,-65.80329,1008.909
0.198446751,0.1071116,-0.2869713,-0.08253194,0.3515174,0.08134366,0.9396962,-20.11957,-5.013196,-65.80329,1008.909
0.203376770,0.04588758,0.1329487,0.1002363,0.3500745,0.07939766,0.9401538,-21.23785,-4.262306,-65.41432,1008.909
0.208306313,-0.01533645,-0.1070056,0.1002363,0.349647,0.07116941,0.940537,-21.23785,-4.262306,-65.41432,1008.907
0.213237286,-0.01533645,-0.04701699,0.2220818,0.3486833,0.06875699,0.9362159,-21.23785,-4.262306,-65.41432,1008.907
0.218166828,0.04588758,0.01297158,-0.08253194,0.3491881,0.06729625,0.9404933,-21.23785,-4.262306,-65.41432,1008.907
0.223096848,0.04588758,-0.04701699,0.03931354,0.3443423,0.06485254,0.9380881,-21.23785,-4.262306,-65.41432,1008.907
0.228026867,0.1683356,0.01297158,-0.08253194,0.3487156,0.06440048,0.9371201,-21.23785,-4.262306,-65.41432,1008.907
0.232957363,0.1683356,0.01297158,-0.08253194,0.3530332,0.07264872,0.9386388,-21.23785,-4.262306,-65.41432,1008.907
0.237887382,0.04588758,-0.04701699,-0.08253194,0.3539462,0.08135969,0.9396918,-21.23785,-4.262306,-65.41432,1008.907
0.242817402,0.04588758,0.01297158,-0.08253194,0.3525329,0.07601901,0.9429736,-21.23785,-4.262306,-65.41432,1008.907
0.247747421,-0.01533645,-0.04701699,-0.08253194,0.3515813,0.07215253,0.9395902,-20.50311,-4.262029,-65.80476,1008.907
0.252677917,-0.01533645,-0.04701699,0.161159,0.3501143,0.07311466,0.9381723,-20.50311,-4.262029,-65.80476,1008.907
0.257607937,-0.01533645,-0.1669942,-0.0216092,0.3501598,0.06586557,0.9357027,-20.50311,-4.262029,-65.80476,1008.907
0.262537956,-0.1990085,0.01297158,-0.0216092,0.3520649,0.07359567,0.9434238,-20.50311,-4.262029,-65.80476,1008.907
0.267467975,-0.07656047,0.1329487,0.161159,0.3483481,0.04554965,0.9306998,-20.50311,-4.262029,-65.80476,1008.907
0.272397995,0.1683356,-0.2269827,-0.2043774,0.3473566,0.0532351,0.947016,-20.50311,-4.262029,-65.80476,1008.907
0.277328491,0.4744557,-0.4069484,-0.2653002,0.3575073,0.05289496,0.9212224,-20.50311,-4.262029,-65.80476,1008.907
0.282258510,0.1071116,0.1929373,-0.8745275,0.3542731,0.1036207,0.9380387,-20.50311,-4.262029,-65.80476,1008.907
0.287188530,-0.01533645,0.1929373,-0.2653002,0.3479284,0.1098479,0.9448037,-20.50311,-4.262029,-65.80476,1008.907
0.292118549,-0.4439045,-0.1669942,0.40485,0.3479411,0.108872,0.9476557,-20.50311,-4.262029,-65.80476,1008.907
0.297049045,-0.07656047,-0.2869713,1.014077,0.3530983,0.06201908,0.9342211,-20.86961,-4.639238,-65.79341,1008.907
0.301979065,-0.07656047,-0.04701699,0.4657727,0.3542382,0.04023305,0.942081,-20.86961,-4.639238,-65.79341,1008.907
0.306909084,0.1683356,-0.1070056,-0.1434547,0.3435947,0.03195866,0.9353244,-20.86961,-4.639238,-65.79341,1008.907
0.311838627,0.1071116,0.07296016,-0.5699138,0.3482483,0.06245524,0.9394848,-20.86961,-4.639238,-65.79341,1008.907
0.319233894,0.2907836,0.07296016,-0.08253194,0.35486,0.09150633,0.9460111,-20.86961,-4.639238,-65.79341,1008.907
0.324169159,0.1683356,0.01297158,-0.08253194,0.3510548,0.07843375,0.9410953,-20.86961,-4.639238,-65.79341,1008.907
0.329094410,0.1071116,-0.04701699,-0.08253194,0.3490641,0.08710994,0.947403,-20.86961,-4.639238,-65.79341,1008.913
0.334020614,-0.07656047,-0.1070056,0.1002363,0.35438,0.08670526,0.9325941,-20.86961,-4.639238,-65.79341,1008.913
0.338950634,-0.07656047,0.01297158,0.40485,0.3530114,0.07507449,0.9362806,-20.86961,-4.639238,-65.79341,1008.913
0.343880653,-0.07656047,-0.1070056,0.3439272,0.3429898,0.05176209,0.9446211,-20.86961,-4.639238,-65.79341,1008.913
0.348811149,0.1683356,-0.1669942,0.03931354,0.3493309,0.04649812,0.939299,-20.85271,-5.013156,-65.35014,1008.913
0.353741169,0.1071116,-0.1070056,-0.2653002,0.3526607,0.05524207,0.9346211,-20.85271,-5.013156,-65.35014,1008.913
0.358671188,-0.1377845,-0.1669942,-0.5089911,0.3514751,0.0895461,0.9469492,-20.85271,-5.013156,-65.35014,1008.913
0.363601208,0.4132317,0.01297158,0.40485,0.3350791,0.06962907,0.9381605,-20.85271,-5.013156,-65.35014,1008.913
0.368533611,0.04588758,-0.3469599,-0.5699138,0.3585536,0.04896362,0.9440824,-20.85271,-5.013156,-65.35014,1008.913
0.373461723,0.903024,-0.1070056,-0.0216092,0.349941,0.09730887,0.9360653,-20.85271,-5.013156,-65.35014,1008.913
0.378391266,-0.3826806,-0.04701699,-0.9963729,0.3703717,0.09405024,0.9383754,-20.85271,-5.013156,-65.35014,1008.913
0.383321285,0.1071116,0.1329487,0.2830045,0.3357705,0.114577,0.9544256,-20.85271,-5.013156,-65.35014,1008.913
0.388252258,-0.5051286,-0.5269256,0.40485,0.3588427,0.07750484,0.9453651,-20.85271,-5.013156,-65.35014,1008.913
0.393181801,0.1683356,-0.3469599,1.135923,0.349825,0.04217872,0.9287492,-20.85271,-5.013156,-65.35014,1008.913
0.398111820,-0.1377845,0.1329487,0.03931354,0.3558185,0.02186749,0.9394804,-20.49743,-4.638155,-65.80048,1008.913
0.403041839,0.4132317,-0.1070056,-0.5089911,0.3381473,0.04643993,0.9340698,-20.49743,-4.638155,-65.80048,1008.913
0.407972336,-0.01533645,0.01297158,-0.8136048,0.3534626,0.08231125,0.9439988,-20.49743,-4.638155,-65.80048,1008.913
0.412902355,0.4132317,-0.1669942,-0.1434547,0.3581517,0.1031782,0.9327767,-20.49743,-4.638155,-65.80048,1008.913
0.417832374,0.04588758,0.1329487,0.1002363,0.353419,0.08716281,0.9392824,-20.49743,-4.638155,-65.80048,1008.913
0.422762394,-0.07656047,-0.1669942,0.1002363,0.3495924,0.082263,0.9516412,-20.49743,-4.638155,-65.80048,1008.913
0.427692890,-0.1990085,-0.1070056,0.161159,0.3514587,0.0876535,0.9326105,-20.49743,-4.638155,-65.80048,1008.913
0.432622909,0.04588758,-0.1669942,0.3439272,0.3505921,0.07312915,0.9343538,-20.49743,-4.638155,-65.80048,1008.913
0.437552929,-0.07656047,0.07296016,0.3439272,0.3483569,0.04697404,0.9397836,-20.49743,-4.638155,-65.80048,1008.913
0.442482948,0.1071116,-0.2269827,-0.0216092,0.3463735,0.05276614,0.939854,-20.49743,-4.638155,-65.80048,1008.913
0.447413444,0.2907836,-0.2269827,-0.2653002,0.3487232,0.06103687,0.9294457,-20.85431,-5.013472,-65.41286,1008.913
0.452343464,0.1683356,-0.04701699,-0.3262229,0.3525008,0.07893842,0.9372805,-20.85431,-5.013472,-65.41286,1008.911
0.457273483,0.2907836,-0.1070056,-0.3262229,0.3514263,0.09344712,0.9364952,-20.85431,-5.013472,-65.41286,1008.911
0.462203503,-0.01533645,-0.04701699,0.03931354,0.3519442,0.09292562,0.950328,-20.85431,-5.013472,-65.41286,1008.911
0.467133522,0.04588758,-0.2269827,0.2830045,0.3539503,0.07991694,0.9368118,-20.85431,-5.013472,-65.41286,1008.911
0.472064018,-0.3826806,-0.1070056,0.161159,0.3494921,0.09725339,0.953723,-20.85431,-5.013472,-65.41286,1008.911
0.476994038,-0.1377845,0.07296016,0.648541,0.3382605,0.02903648,0.9300513,-20.85431,-5.013472,-65.41286,1008.911
0.481923580,-0.3826806,-0.2869713,-0.5699138,0.3572135,0.0339396,0.9501159,-20.85431,-5.013472,-65.41286,1008.911
0.486853599,0.903024,-0.3469599,-0.0216092,0.3462489,0.06826993,0.9319198,-20.85431,-5.013472,-65.41286,1008.911
0.494248867,-0.1377845,0.1329487,-0.9354503,0.3611357,0.09591442,0.9417549,-20.49174,-5.01428,-65.79622,1008.91
0.499179840,-0.01533645,0.07296016,0.1002363,0.3429453,0.1301105,0.9526821,-20.49174,-5.01428,-65.79622,1008.91
0.504109383,-0.1990085,-0.2869713,0.648541,0.3582836,0.08479027,0.9344737,-20.49174,-5.01428,-65.79622,1008.91
0.509039402,-0.07656047,-0.1070056,0.8922319,0.3574592,0.06589528,0.9418933,-20.49174,-5.01428,-65.79622,1008.91
0.513974190,-0.07656047,0.07296016,0.1002363,0.3411876,0.02712215,0.9295465,-20.49174,-5.01428,-65.79622,1008.91
0.518899917,-0.01533645,0.01297158,-0.3262229,0.3522025,0.05424171,0.9446324,-20.49174,-5.01428,-65.79622,1008.91
0.523829937,0.2907836,-0.1669942,-0.2653002,0.3472489,0.06248838,0.9261246,-20.49174,-5.01428,-65.79622,1008.91
0.528759956,0.2907836,0.01297158,-0.0216092,0.3578576,0.07703871,0.9372485,-20.49174,-5.01428,-65.79622,1008.91
0.533686161,0.1071116,0.01297158,-0.2653002,0.348092,0.08518834,0.9407014,-20.49174,-5.01428,-65.79622,1008.915
0.538616657,-0.07656047,-0.1070056,-0.2653002,0.3538533,0.09442357,0.9388881,-20.49174,-5.01428,-65.79622,1008.915
0.543546677,-0.1990085,-0.04701699,0.2220818,0.3548276,0.09346814,0.9369662,-20.86407,-4.260906,-65.35868,1008.915
0.548476696,-0.1377845,-0.1070056,0.5266955,0.3549333,0.0779912,0.9358333,-20.86407,-4.260906,-65.35868,1008.915
0.553406238,-0.07656047,-0.1669942,0.40485,0.3473573,0.04988139,0.936001,-20.86407,-4.260906,-65.35868,1008.915
0.558336258,-0.07656047,0.07296016,-0.0216092,0.3464311,0.044063,0.9383219,-20.86407,-4.260906,-65.35868,1008.915
0.563267231,0.1071116,0.01297158,-0.2043774,0.3541166,0.0557326,0.9355785,-20.86407,-4.260906,-65.35868,1008.915
0.568196773,0.2295596,-0.1070056,-0.2043774,0.3505692,0.07699344,0.9363073,-20.86407,-4.260906,-65.35868,1008.915
0.573126793,0.2295596,0.01297158,-0.2043774,0.3568541,0.0823464,0.9396977,-20.86407,-4.260906,-65.35868,1008.915
0.578056812,-0.01533645,-0.1070056,-0.0216092,0.3475481,0.09341017,0.9403199,-20.86407,-4.260906,-65.35868,1008.915
0.582987308,-0.01533645,-0.04701699,0.161159,0.3568248,0.08669868,0.9402252,-20.86407,-4.260906,-65.35868,1008.915
0.587917328,-0.1377845,0.01297158,0.2830045,0.3481581,0.07455729,0.936761,-20.86407,-4.260906,-65.35868,1008.915
0.592847347,-0.01533645,-0.1070056,0.3439272,0.3506795,0.06198893,0.9389976,-20.48213,-5.012389,-65.41994,1008.915
0.597777367,0.04588758,0.01297158,-0.08253194,0.3507358,0.05232961,0.9336367,-20.48213,-5.012389,-65.41994,1008.915
0.602707863,0.1683356,-0.1669942,0.03931354,0.3545845,0.05815594,0.9351283,-20.48213,-5.012389,-65.41994,1008.915
0.607637882,0.04588758,-0.1669942,-0.1434547,0.3472559,0.06487318,0.9376056,-20.48213,-5.012389,-65.41994,1008.915
0.612568378,0.3520077,-0.1070056,-0.1434547,0.3505535,0.08036834,0.940164,-20.48213,-5.012389,-65.41994,1008.914
0.617497921,0.1071116,0.01297158,-0.08253194,0.3544102,0.08378866,0.9373327,-20.48213,-5.012389,-65.41994,1008.914
0.622428417,-0.07656047,-0.1669942,0.03931354,0.3476184,0.08373107,0.94164,-20.48213,-5.012389,-65.41994,1008.914
0.627358436,0.1071116,0.07296016,0.161159,0.3481376,0.07793926,0.9382316,-20.48213,-5.012389,-65.41994,1008.914
0.632288456,0.04588758,-0.2269827,0.2220818,0.3487202,0.06487291,0.9409435,-20.48213,-5.012389,-65.41994,1008.914
0.637218475,-0.01533645,-0.1070056,0.2220818,0.3497335,0.0585935,0.9399148,-20.48213,-5.012389,-65.41994,1008.914
0.642148971,0.1071116,-0.1070056,-0.0216092,0.3536004,0.06152018,0.9404184,-20.86392,-5.015363,-65.78914,1008.914
0.647078991,0.04588758,-0.04701699,-0.2653002,0.3453501,0.06049679,0.9408994,-20.86392,-5.015363,-65.78914,1008.914
0.652009010,0.04588758,-0.04701699,-0.1434547,0.3530259,0.07313812,0.9367355,-20.86392,-5.015363,-65.78914,1008.914
0.656938553,0.1683356,-0.1669942,-0.2653002,0.3505249,0.08519872,0.9426059,-20.86392,-5.015363,-65.78914,1008.914
0.661869526,0.1071116,-0.04701699,-0.0216092,0.3505482,0.08085492,0.9392152,-20.86392,-5.015363,-65.78914,1008.914
0.669263840,-0.07656047,-0.1070056,0.2220818,0.3515639,0.07409316,0.9377037,-20.86392,-5.015363,-65.78914,1008.914
0.674194813,0.2295596,0.01297158,0.161159,0.3506004,0.07263835,0.9367343,-20.86392,-5.015363,-65.78914,1008.914
0.679124355,-0.07656047,-0.2269827,-0.0216092,0.3531269,0.06102053,0.9447087,-20.86392,-5.015363,-65.78914,1008.914
0.684054375,0.1071116,0.3129145,-0.08253194,0.3506321,0.06780375,0.9357241,-20.86392,-5.015363,-65.78914,1008.914
0.688984394,0.1071116,-0.04701699,-0.1434547,0.3486716,0.06973154,0.933841,-20.50311,-4.262029,-65.80476,1008.914
0.693914890,0.1071116,0.1329487,-0.2653002,0.3529945,0.07893032,0.9410974,-20.50311,-4.262029,-65.80476,1008.914
0.698844910,-0.01533645,0.01297158,0.03931354,0.3559244,0.07461706,0.9338837,-20.50311,-4.262029,-65.80476,1008.914
0.703774929,0.1071116,0.07296016,-0.3262229,0.360974,0.04324395,0.9206275,-20.50311,-4.262029,-65.80476,1008.914
0.708704948,0.04588758,0.5528688,-0.9963729,0.3454331,0.04984173,0.9450716,-20.50311,-4.262029,-65.80476,1008.914
0.713635445,-0.1377845,0.01297158,-1.300987,0.3364998,0.08070686,0.9578519,-20.50311,-4.262029,-65.80476,1008.914
0.718565464,-0.4439045,-0.1669942,-1.240064,0.348046,0.09435403,0.9493973,-20.50311,-4.262029,-65.80476,1008.914
0.723495483,-0.6275766,0.01297158,-1.300987,0.3617088,0.0809456,0.9334685,-20.50311,-4.262029,-65.80476,1008.914
0.728425503,-0.8112487,0.1929373,-1.240064,0.3559166,0.07319126,0.9252771,-20.50311,-4.262029,-65.80476,1008.914
0.733352184,-1.056145,0.1329487,-1.422832,0.3478247,0.05422134,0.9417769,-20.50311,-4.262029,-65.80476,1008.914
0.738282204,-0.8724728,0.3129145,-1.727446,0.34397,0.04840349,0.9374221,-20.47485,-5.388197,-65.35296,1008.912
0.743211746,-0.9949207,0.01297158,-1.971137,0.3453592,0.05904698,0.9404054,-20.47485,-5.388197,-65.35296,1008.912
0.748141766,-0.9949207,0.01297158,-2.458519,0.3516529,0.06342962,0.9447392,-20.47485,-5.388197,-65.35296,1008.912
0.753072739,-1.362265,0.01297158,-3.006823,0.345384,0.05661696,0.9441953,-20.47485,-5.388197,-65.35296,1008.912
0.758002281,-1.790833,-0.04701699,-3.37236,0.3448231,0.06486281,0.9357011,-20.47485,-5.388197,-65.35296,1008.912
0.762932301,-1.974505,0.372903,-3.920665,0.3531292,0.05814349,0.9360853,-20.47485,-5.388197,-65.35296,1008.912
0.767864227,-2.158177,0.3129145,-4.408046,0.3507497,0.05230984,0.9403177,-20.47485,-5.388197,-65.35296,1008.912
0.772792816,-2.341849,0.3129145,-4.834505,0.347829,0.05373618,0.9422485,-20.47485,-5.388197,-65.35296,1008.912
0.777722835,-2.403073,0.1929373,-5.200042,0.3424781,0.05562741,0.9451438,-20.47485,-5.388197,-65.35296,1008.91
0.782652855,-2.770417,0.1929373,-5.626501,0.3473029,0.05953789,0.9423164,-20.47485,-5.388197,-65.35296,1008.91
0.787582874,-2.892865,0.07296016,-5.992037,0.3506442,0.06634969,0.9366617,-20.49174,-5.01428,-65.79622,1008.91
0.792513370,-3.137761,0.3129145,-6.540342,0.3482055,0.06874248,0.9400346,-20.49174,-5.01428,-65.79622,1008.91
0.797443390,-3.137761,0.3129145,-6.540342,0.3481691,0.07454176,0.9420103,-20.49174,-5.01428,-65.79622,1008.91
0.802373409,-3.198986,0.1929373,-6.479419,0.3505917,0.07360866,0.935791,-20.49174,-5.01428,-65.79622,1008.91
0.807303429,-3.137761,0.1929373,-6.174806,0.3515599,0.07409881,0.9357948,-20.49174,-5.01428,-65.79622,1008.91
0.812233448,-2.954089,0.1929373,-5.992037,0.3524843,0.08087762,0.9358712,-20.49174,-5.01428,-65.79622,1008.91
0.817163944,-2.770417,0.1929373,-5.687424,0.3524763,0.08472073,0.9449829,-20.49174,-5.01428,-65.79622,1008.913
0.822093964,-2.525521,0.1929373,-5.504655,0.3523796,0.09635317,0.9374813,-20.49174,-5.01428,-65.79622,1008.913
0.827023983,-2.647969,0.1929373,-4.773582,0.3548217,0.09347662,0.934103,-20.49174,-5.01428,-65.79622,1008.913
0.831953526,-2.280625,0.1329487,-4.04251,0.3499312,0.09971769,0.9394336,-20.49174,-5.01428,-65.79622,1008.913
0.836884499,-1.545937,0.07296016,-3.250514,0.3518756,0.0992496,0.9384701,-20.49743,-4.638155,-65.80048,1008.913
0.841814518,-0.9336967,0.1329487,-2.275751,0.3533743,0.09345288,0.9388778,-20.49743,-4.638155,-65.80048,1008.913
0.849209785,-0.6275766,-0.1070056,-0.8745275,0.3518949,0.09491145,0.9331705,-20.49743,-4.638155,-65.80048,1008.913
0.854139328,-0.2602325,0.3129145,-0.2653002,0.3500029,0.08955768,0.9397936,-20.49743,-4.638155,-65.80048,1008.913
0.859069347,-0.2602325,-0.04701699,-0.0216092,0.3485929,0.08373325,0.9430698,-20.49743,-4.638155,-65.80048,1008.911
0.863999367,-0.07656047,-0.04701699,0.2830045,0.3511023,0.07118185,0.93958,-20.49743,-4.638155,-65.80048,1008.911
0.868929863,-0.07656047,-0.04701699,0.3439272,0.3492258,0.06245318,0.9423463,-20.49743,-4.638155,-65.80048,1008.911
0.873859882,0.04588758,0.07296016,-0.0216092,0.3497713,0.05231331,0.9369789,-20.49743,-4.638155,-65.80048,1008.911
0.878789902,-0.01533645,0.1929373,-0.1434547,0.346282,0.06534912,0.9380901,-20.49743,-4.638155,-65.80048,1008.911
0.883719921,0.1071116,-0.04701699,-0.2653002,0.3486736,0.06972872,0.9347954,-20.4935,-4.260138,-65.42847,1008.911
0.888650417,-0.1990085,-0.1070056,-0.3871456,0.3496307,0.07406621,0.9424793,-20.4935,-4.260138,-65.42847,1008.911
0.893580437,-0.01533645,-0.04701699,-0.5699138,0.3524839,0.08135714,0.9373084,-20.4935,-4.260138,-65.42847,1008.911
0.898510456,-0.3826806,0.01297158,-0.3262229,0.3525444,0.07408686,0.9419969,-20.4935,-4.260138,-65.42847,1008.911
0.903440475,-0.1990085,0.07296016,-0.2043774,0.3510441,0.07940689,0.9391976,-20.4935,-4.260138,-65.42847,1008.911
0.908370972,-0.4439045,0.07296016,-0.1434547,0.3511294,0.0682695,0.9428869,-20.4935,-4.260138,-65.42847,1008.911
0.913300991,-0.1377845,-0.1070056,-0.2653002,0.3511595,0.06295821,0.9394851,-20.4935,-4.260138,-65.42847,1008.911
0.918231010,-0.3214566,0.1929373,-0.3871456,0.3443715,0.06193737,0.9423495,-20.4935,-4.260138,-65.42847,1008.911
0.923166275,-0.1377845,0.07296016,-0.6308365,0.3467641,0.06631556,0.939532,-20.4935,-4.260138,-65.42847,1008.911
0.928091526,-0.5663526,0.07296016,-0.6308365,0.3486871,0.07018844,0.9429137,-20.4935,-4.260138,-65.42847,1008.911
0.933017254,-0.7500247,0.07296016,-1.118218,0.3468034,0.06051206,0.9389879,-20.87136,-3.885097,-65.42566,1008.911
0.937947273,-0.5051286,0.2529259,-1.544678,0.3443648,0.06290486,0.9423606,-20.87136,-3.885097,-65.42566,1008.909
0.942877293,-0.9949207,0.07296016,-1.727446,0.3453754,0.05615016,0.9384632,-20.87136,-3.885097,-65.42566,1008.909
0.947807789,-1.239817,0.1929373,-2.397596,0.346377,0.0546771,0.9479889,-20.87136,-3.885097,-65.42566,1008.909
0.952737808,-1.423489,0.01297158,-2.519442,0.3472902,0.06051385,0.9394642,-20.87136,-3.885097,-65.42566,1008.909
0.957667828,-1.545937,0.07296016,-3.006823,0.3492841,0.05279102,0.9379398,-20.87136,-3.885097,-65.42566,1008.909
0.962597847,-1.729609,0.07296016,-3.616051,0.3517208,0.05423285,0.946542,-20.87136,-3.885097,-65.42566,1008.909
0.967528343,-1.974505,0.2529259,-4.286201,0.3453923,0.05373145,0.9384353,-20.87136,-3.885097,-65.42566,1008.909
0.972458363,-2.219401,0.01297158,-4.956351,0.3483841,0.04406169,0.9430906,-20.87136,-3.885097,-65.42566,1008.909
0.977388382,-2.770417,0.2529259,-5.748346,0.3460075,0.0358291,0.9406141,-20.87136,-3.885097,-65.42566,1008.909
0.982321739,-3.26021,0.1929373,-6.601265,0.3420988,0.03918824,0.9411373,-20.12526,-4.63707,-65.80756,1008.909
0.987248898,-3.56633,0.3129145,-7.880643,0.3416385,0.03340131,0.9339131,-20.12526,-4.63707,-65.80756,1008.909
0.992178917,-3.688778,0.3129145,-8.672638,0.346975,0.03344646,0.9305629,-20.12526,-4.63707,-65.80756,1008.909
0.997108936,-3.015313,0.6128573,-8.977252,0.3420399,0.0483723,0.9436293,-20.12526,-4.63707,-65.80756,1008.909
1.002038956,-3.56633,0.2529259,-9.952016,0.3358429,0.03235722,0.9467971,-20.12526,-4.63707,-65.80756,1008.909
1.006969452,-3.750002,0.1329487,-10.92678,0.3378068,0.02994567,0.9486746,-20.12526,-4.63707,-65.80756,1008.909
1.011899471,-4.362242,0.07296016,-12.14523,0.348013,0.02617412,0.9381129,-20.12526,-4.63707,-65.80756,1008.909
1.016829491,-4.913259,0.2529259,-13.60738,0.3436616,0.02276331,0.93665,-20.12526,-4.63707,-65.80756,1008.909
1.024224758,-5.831619,0.2529259,-15.61783,0.3349977,0.01349189,0.9441953,-20.12526,-4.63707,-65.80756,1008.912
1.029154301,-5.954067,0.2529259,-16.95813,0.3398437,0.01449849,0.9418116,-21.23217,-4.638431,-65.41005,1008.912
1.034084320,-6.505083,0.1329487,-18.54212,0.3388512,0.01835355,0.9447213,-21.23217,-4.638431,-65.41005,1008.912
1.039014816,-7.362219,0.07296016,-19.94334,0.3354423,0.02025902,0.9471358,-21.23217,-4.638431,-65.41005,1008.912
1.043944836,-7.913235,0.1929373,-21.89287,0.3378992,0.01496659,0.9427751,-21.23217,-4.638431,-65.41005,1008.912
1.048874855,-8.341803,0.01297158,-23.59871,0.3354299,0.01836077,0.9347059,-21.23217,-4.638431,-65.41005,1008.912
1.053804874,-9.137715,0.1929373,-25.24362,0.3394205,0.005785085,0.9426665,-21.23217,-4.638431,-65.41005,1008.912
1.058735371,-9.749955,0.3129145,-27.0713,0.3326356,0.003322903,0.9421737,-21.23217,-4.638431,-65.41005,1008.91
1.063665390,-10.72954,0.372903,-29.2036,0.3380648,-0.009695837,0.9396273,-21.23217,-4.638431,-65.41005,1008.91
1.068595409,-11.403,0.372903,-31.76236,0.3342566,-0.01893238,0.9462094,-21.23217,-4.638431,-65.41005,1008.91
1.073530674,-12.56626,0.4328916,-34.5648,0.3265642,-0.03059209,0.9456123,-21.23217,-4.638431,-65.41005,1008.91
1.078455925,-13.72952,0.4928802,-37.7937,0.3261437,-0.04026733,0.9445472,-20.86961,-4.639238,-65.79341,1008.91
1.083385944,-14.83155,0.372903,-41.08353,0.3246914,-0.04028401,0.9469359,-20.86961,-4.639238,-65.79341,1008.91
1.088315964,-16.2397,0.6128573,-44.61705,0.3212958,-0.04127112,0.9459764,-20.86961,-4.639238,-65.79341,1008.91
1.093245983,-17.40296,0.4928802,-48.02872,0.3188993,-0.04564365,0.946885,-20.86961,-4.639238,-65.79341,1008.91
1.098176479,-18.74989,0.6728459,-51.68409,0.3179245,-0.04277162,0.9550329,-20.86961,-4.639238,-65.79341,1008.91
1.103107929,-20.09682,0.7328345,-55.21761,0.3208231,-0.04272979,0.9473923,-20.86961,-4.639238,-65.79341,1008.908
1.108036518,-21.26007,0.6728459,-58.81205,0.3203332,-0.04129024,0.9502731,-20.86961,-4.639238,-65.79341,1008.908
1.112966538,-22.48455,0.6128573,-62.04095,0.3174433,-0.04230238,0.9588571,-20.86961,-4.639238,-65.79341,1008.908
1.117897034,-23.89271,0.7928231,-65.33079,0.3110876,-0.03989144,0.9474432,-20.86961,-4.639238,-65.79341,1008.908
1.122827053,-24.87229,0.6728459,-68.55969,0.3110197,-0.03069467,0.9456403,-20.86961,-4.639238,-65.79341,1008.908
1.127757072,-25.97432,0.7928231,-71.60583,0.3149039,-0.0282715,0.9528195,-20.4766,-4.634056,-64.98521,1008.908
1.132684231,-27.13758,0.9727888,-74.65196,0.3167877,-0.02242692,0.9438158,-20.4766,-4.634056,-64.98521,1008.908
1.137612820,-28.36206,0.9727888,-77.6981,0.3119362,-0.02150985,0.9500396,-20.4766,-4.634056,-64.98521,1008.908
1.142543316,-29.2192,0.9727888,-80.50055,0.3008009,-0.02211535,0.9662794,-20.4766,-4.634056,-64.98521,1008.907
1.147473335,-30.32123,0.6728459,-83.0593,0.3051534,-0.02158016,0.9586417,-20.4766,-4.634056,-64.98521,1008.907
1.152403355,-31.23959,0.8528116,-85.67898,0.3157299,-0.008899823,0.9477915,-20.4766,-4.634056,-64.98521,1008.907
1.157333374,-31.97427,1.092766,-88.05497,0.3147045,-0.001166345,0.9478825,-20.4766,-4.634056,-64.98521,1008.907
1.162263870,-33.07631,1.392709,-90.49187,0.3035569,-0.002712493,0.9550442,-20.4766,-4.634056,-64.98521,1008.907
1.167193890,-33.811,1.212743,-92.74602,0.300624,0.001605011,0.9608261,-20.4766,-4.634056,-64.98521,1008.907
1.172123909,-34.72935,1.152755,-94.63462,0.3063976,0.01034379,0.9633021,-20.4766,-4.634056,-64.98521,1008.907
1.177053928,-35.15792,1.152755,-96.70599,0.3033589,0.02391174,0.9491472,-20.11564,-4.635179,-65.43128,1008.907
1.181984425,-36.13751,1.572675,-98.5946,0.3058605,0.01232924,0.9451911,-20.11564,-4.635179,-65.43128,1008.909
1.186914444,-36.93342,1.932606,-100.605,0.291816,0.00978083,0.9575962,-20.11564,-4.635179,-65.43128,1008.909
1.191844463,-37.36199,1.692652,-102.4327,0.27925,0.004338169,0.9704425,-20.11564,-4.635179,-65.43128,1008.909
1.199239254,-38.34157,1.212743,-105.1743,0.2845657,0.006807686,0.9652113,-20.11564,-4.635179,-65.43128,1008.909
1.204169273,-39.07626,1.392709,-107.1847,0.2889302,0.00732593,0.9633002,-20.11564,-4.635179,-65.43128,1008.909
1.209100246,-40.11707,1.392709,-109.6216,0.2851783,-0.01156993,0.9645213,-20.11564,-4.635179,-65.43128,1008.909
1.214029789,-41.09665,1.512686,-111.8758,0.2759099,-0.007743946,0.958856,-20.11564,-4.635179,-65.43128,1008.909
1.218959808,-41.70889,1.33272,-114.1908,0.2861266,-0.007219723,0.9679102,-20.11564,-4.635179,-65.43128,1008.909
1.223889828,-42.13746,1.33272,-116.5668,0.2782695,0.004344472,0.9661492,-20.11564,-4.635179,-65.43128,1008.907
1.228820324,-43.23949,1.512686,-118.821,0.2797448,0.0004968566,0.9618071,-19.73794,-4.255762,-65.00363,1008.907
1.233750343,-44.03541,1.692652,-121.0142,0.2778242,-0.001463652,0.9660832,-19.73794,-4.255762,-65.00363,1008.907
1.238680363,-44.40275,1.812629,-122.9637,0.2690155,0.01006588,0.9738684,-19.73794,-4.255762,-65.00363,1008.907
1.243610382,-45.13744,1.812629,-124.6695,0.262183,0.01629271,0.9796796,-19.73794,-4.255762,-65.00363,1008.907
1.248540401,-45.62723,1.272732,-126.1926,0.2703974,0.02119876,0.9749484,-19.73794,-4.255762,-65.00363,1008.907
1.253470898,-45.99458,1.392709,-127.5329,0.2678537,0.03571481,0.9684391,-19.73794,-4.255762,-65.00363,1008.907
1.258400917,-46.3007,1.512686,-128.8732,0.2702829,0.03525132,0.9669975,-19.73794,-4.255762,-65.00363,1008.907
1.263330936,-47.03539,1.512686,-129.848,0.2770953,0.03432165,0.9693601,-19.73794,-4.255762,-65.00363,1008.906
1.268260956,-47.21906,1.692652,-131.0055,0.2736305,0.04157514,0.962769,-19.73794,-4.255762,-65.00363,1008.906
1.273191452,-47.64762,1.572675,-131.7975,0.271736,0.034309,0.9617344,-19.73794,-4.255762,-65.00363,1008.906
1.278121471,-47.89252,1.632663,-132.8941,0.2688454,0.03281876,0.9684039,-18.99927,-3.877469,-65.02205,1008.906
1.283051491,-48.44353,1.992595,-133.8689,0.2663752,0.03860906,0.967998,-18.99927,-3.877469,-65.02205,1008.906
1.287981510,-48.8721,1.992595,-135.0873,0.2629936,0.03616508,0.9689307,-18.99927,-3.877469,-65.02205,1008.906
1.292912006,-48.99455,2.112572,-136.123,0.2596557,0.02886954,0.9745797,-18.99927,-3.877469,-65.02205,1008.906
1.297842026,-49.117,1.872617,-137.0978,0.2611154,0.02839683,0.9740943,-18.99927,-3.877469,-65.02205,1008.906
1.302772045,-49.54557,1.75264,-138.1944,0.2702901,0.03236723,0.9607602,-18.99927,-3.877469,-65.02205,1008.906
1.307701588,-49.91291,2.412515,-139.5347,0.2737221,0.02516036,0.9516034,-18.99927,-3.877469,-65.02205,1008.906
1.312633514,-50.15781,2.892423,-140.5095,0.2586748,0.02696064,0.9635832,-18.99927,-3.877469,-65.02205,1008.906
1.317562103,-49.60679,3.0124,-140.9968,0.2466343,0.01523818,0.9744471,-18.99927,-3.877469,-65.02205,1008.906
1.322492122,-49.05578,2.712458,-141.2405,0.2416986,0.02968593,0.9855992,-18.6118,-4.250618,-64.64857,1008.906
1.327425003,-49.05578,2.472503,-142.1544,0.2401128,0.04997516,0.9920399,-18.6118,-4.250618,-64.64857,1008.906
1.332348823,-50.70882,2.292538,-143.6165,0.2313534,0.05712417,1.008842,-18.6118,-4.250618,-64.64857,1008.906
1.337278843,-51.99453,1.692652,-145.0177,0.2289344,0.05230461,0.9973373,-18.6118,-4.250618,-64.64857,1008.906
1.342208862,-52.85167,1.452697,-146.2971,0.2381279,0.05385347,0.9849298,-18.6118,-4.250618,-64.64857,1008.904
1.347138882,-52.91289,1.872617,-147.0891,0.2502777,0.05057283,0.9762789,-18.6118,-4.250618,-64.64857,1008.904
1.352069378,-53.03534,1.75264,-147.5156,0.256449,0.06758225,0.9640553,-18.6118,-4.250618,-64.64857,1008.904
1.356999397,-53.58635,2.112572,-148.0029,0.2565499,0.05306995,0.9638879,-18.6118,-4.250618,-64.64857,1008.904
1.361929417,-53.34146,2.232549,-147.8811,0.239568,0.05676131,0.9863922,-18.6118,-4.250618,-64.64857,1008.904
1.366858959,-53.7088,2.052583,-148.6731,0.2245541,0.05276657,0.9949647,-18.6118,-4.250618,-64.64857,1008.904
1.371789932,-53.9537,1.692652,-149.0996,0.2264891,0.05422779,0.9959323,-17.48013,-3.867141,-63.8588,1008.904
1.379184246,-54.13737,1.392709,-149.7697,0.2351727,0.05868156,0.9816503,-17.48013,-3.867141,-63.8588,1008.904
1.384115219,-54.25982,1.632663,-150.3789,0.2448621,0.0587824,0.9692253,-17.48013,-3.867141,-63.8588,1008.908
1.389044762,-55.11695,1.992595,-150.9272,0.2435008,0.04426754,0.9666744,-17.48013,-3.867141,-63.8588,1008.908
1.393974781,-54.74961,1.932606,-151.2928,0.2343635,0.03449647,0.9785099,-17.48013,-3.867141,-63.8588,1008.908
1.398904800,-54.62716,1.992595,-151.5974,0.2279925,0.04746642,0.9953744,-17.48013,-3.867141,-63.8588,1008.908
1.403835296,-54.44349,1.932606,-151.5365,0.2289594,0.04460568,0.9834088,-17.48013,-3.867141,-63.8588,1008.908
1.408765316,-54.19859,1.872617,-151.902,0.2234934,0.06246609,0.9845793,-17.48013,-3.867141,-63.8588,1008.908
1.413695335,-55.42308,1.812629,-152.694,0.2292949,0.06733351,0.9874878,-17.48013,-3.867141,-63.8588,1008.908
1.418625355,-56.46388,2.232549,-153.8515,0.2239968,0.06148627,0.9898167,-17.48013,-3.867141,-63.8588,1008.908
1.423555851,-57.2598,1.992595,-154.3389,0.2235583,0.05710536,0.99788,-16.73402,-4.619115,-64.2407,1008.908
1.428485870,-57.44347,1.512686,-154.3998,0.2250372,0.0498998,0.9839544,-16.73402,-4.619115,-64.2407,1008.908
1.433419227,-57.56591,1.33272,-154.3389,0.225964,0.05619628,0.9835479,-16.73402,-4.619115,-64.2407,1008.908
1.438345909,-56.95367,1.452697,-154.2171,0.2273722,0.06298113,0.982669,-16.73402,-4.619115,-64.2407,1008.908
1.443276405,-56.40266,1.872617,-153.7906,0.2308161,0.05192551,0.9663092,-16.73402,-4.619115,-64.2407,1008.908
1.448206425,-56.09654,2.052583,-153.6078,0.2229847,0.06632718,0.9865335,-16.73402,-4.619115,-64.2407,1008.908
1.453136444,-55.72919,1.932606,-153.1205,0.2181166,0.06822585,0.9879964,-16.73402,-4.619115,-64.2407,1008.908
1.458066463,-56.09654,1.872617,-153.1814,0.2292959,0.0673321,0.987965,-16.73402,-4.619115,-64.2407,1008.908
1.462996960,-56.34143,1.692652,-152.9986,0.2313132,0.05526547,0.9830499,-16.73402,-4.619115,-64.2407,1008.908
1.467926979,-55.60675,1.632663,-152.2675,0.2214582,0.07455814,0.9809045,-16.73402,-4.619115,-64.2407,1008.908
1.472856998,-56.03532,1.692652,-152.0848,0.234614,0.06788218,0.9774622,-15.98574,-4.238929,-63.88284,1008.908
1.477786541,-55.42308,2.232549,-151.6583,0.2224952,0.06345542,0.9750478,-15.98574,-4.238929,-63.88284,1008.908
1.482717514,-54.68839,2.17256,-150.6226,0.2172152,0.05997745,0.9941071,-15.98574,-4.238929,-63.88284,1008.908
1.487647533,-54.93328,1.75264,-150.318,0.2215731,0.06385788,1.000348,-15.98574,-4.238929,-63.88284,1008.908
1.492577076,-54.38227,1.632663,-149.526,0.2258838,0.06828421,0.9855962,-15.98574,-4.238929,-63.88284,1008.908
1.497507095,-55.2394,1.572675,-149.4651,0.2171339,0.0735039,1.000467,-15.98574,-4.238929,-63.88284,1008.908
1.502438068,-54.44349,1.392709,-148.4294,0.2127664,0.06915808,0.9880171,-15.98574,-4.238929,-63.88284,1008.908
1.507367611,-54.56594,1.512686,-147.942,0.2337402,0.05624192,0.9854428,-15.98574,-4.238929,-63.88284,1008.908
1.512297630,-53.58635,1.512686,-146.9673,0.2097304,0.085596,0.9848716,-15.98574,-4.238929,-63.88284,1008.908
1.517227650,-53.40268,1.452697,-146.419,0.2424405,0.05971408,0.9759218,-15.98574,-4.238929,-63.88284,1008.908
1.522158146,-53.21901,2.112572,-145.627,0.2325871,0.08092054,0.9809569,-15.23178,-4.234869,-63.52071,1008.908
1.527088165,-52.36187,2.052583,-144.5303,0.2298005,0.06108196,0.9759613,-15.23178,-4.234869,-63.52071,1008.908
1.532014370,-51.74963,2.292538,-143.3119,0.2252855,0.08616254,0.9915301,-15.23178,-4.234869,-63.52071,1008.908
1.536944389,-52.4231,2.052583,-142.459,0.2195173,0.0769372,0.990003,-15.23178,-4.234869,-63.52071,1008.908
1.541873932,-51.93331,1.692652,-141.2405,0.21024,0.08939711,1.009253,-15.23178,-4.234869,-63.52071,1008.908
1.546804905,-51.38229,1.452697,-140.083,0.2272657,0.07941709,0.9866763,-15.23178,-4.234869,-63.52071,1008.913
1.554200172,-50.46393,1.632663,-137.8289,0.2427963,0.07953944,0.9799673,-15.23178,-4.234869,-63.52071,1008.913
1.559130192,-50.03536,1.632663,-136.3058,0.2335315,0.0838393,0.9776481,-15.23178,-4.234869,-63.52071,1008.913
1.564059734,-49.17823,1.512686,-134.7218,0.245741,0.07041559,0.9636307,-15.23178,-4.234869,-63.52071,1008.913
1.568989754,-48.25986,2.232549,-132.955,0.2525446,0.06806153,0.9569096,-15.23586,-3.85843,-63.46227,1008.913
1.573920727,-47.64762,2.532492,-131.6757,0.2292765,0.06927554,0.9851241,-15.23586,-3.85843,-63.46227,1008.913
1.578850269,-47.46395,2.112572,-130.579,0.2214732,0.08076347,1.009133,-15.23586,-3.85843,-63.46227,1008.913
1.583780289,-47.09661,1.692652,-129.2387,0.2234685,0.0663332,0.9855784,-15.23586,-3.85843,-63.46227,1008.913
1.588710308,-46.66804,1.812629,-128.264,0.2287787,0.06928929,0.9793984,-15.23586,-3.85843,-63.46227,1008.913
1.593640804,-46.72926,1.75264,-127.3501,0.2240523,0.05422306,0.992119,-15.23586,-3.85843,-63.46227,1008.913
1.598570824,-45.87213,1.452697,-126.0708,0.2380538,0.06210112,0.976912,-15.23586,-3.85843,-63.46227,1008.913
1.603500843,-45.62723,1.932606,-125.4006,0.2449116,0.05152766,0.9686643,-15.23586,-3.85843,-63.46227,1008.913
1.608430862,-44.64765,1.812629,-123.9994,0.2327614,0.0591196,0.9916818,-15.23586,-3.85843,-63.46227,1008.913
1.613361359,-45.44356,1.512686,-123.1465,0.2235396,0.0619216,1.005094,-15.23586,-3.85843,-63.46227,1008.913
1.618291378,-44.83132,0.8528116,-121.928,0.2327384,0.06058919,0.9854947,-14.49151,-3.856262,-63.47642,1008.913
1.623221397,-44.15786,1.392709,-120.5268,0.2497269,0.05736746,0.9677681,-14.49151,-3.856262,-63.47642,1008.913
1.628156662,-43.11705,2.052583,-119.2474,0.2384732,0.06938306,0.9693594,-14.49151,-3.856262,-63.47642,1008.913
1.633081913,-43.17827,1.872617,-118.1508,0.2410246,0.05772994,0.9892641,-14.49151,-3.856262,-63.47642,1008.913
1.638011932,-43.05582,1.272732,-116.9933,0.2419644,0.06257095,0.9902726,-14.49151,-3.856262,-63.47642,1008.913
1.642941952,-42.50481,1.272732,-115.5311,0.2502058,0.05977526,0.9725673,-14.49151,-3.856262,-63.47642,1008.913
1.647871971,-41.64767,1.572675,-114.1299,0.2463624,0.05346236,0.9720245,-14.49151,-3.856262,-63.47642,1008.913
1.652801514,-40.48441,1.812629,-112.3631,0.2428981,0.06263104,0.9721366,-14.49151,-3.856262,-63.47642,1008.913
1.657732487,-39.9334,1.932606,-110.7182,0.2531503,0.05592031,0.973949,-14.49151,-3.856262,-63.47642,1008.913
1.662662506,-39.32116,2.052583,-108.8905,0.2443721,0.06165905,0.976895,-14.49151,-3.856262,-63.47642,1008.913
1.667592049,-38.58647,1.812629,-107.1847,0.2569824,0.06512295,0.9788201,-12.99712,-4.22805,-63.50046,1008.913
1.672522068,-37.85178,2.052583,-105.6007,0.2593523,0.06809653,0.9602379,-12.99712,-4.22805,-63.50046,1008.913
1.677453041,-37.17832,2.412515,-103.834,0.2598977,0.06178847,0.9678,-12.99712,-4.22805,-63.50046,1008.913
1.682382584,-36.07628,2.17256,-101.7626,0.247237,0.06797542,0.974099,-12.99712,-4.22805,-63.50046,1008.913
1.687312603,-35.70894,2.412515,-99.99583,0.2482065,0.06798466,0.9731427,-12.99712,-4.22805,-63.50046,1008.913
1.692242622,-34.8518,2.17256,-98.10722,0.2405048,0.06304367,0.9907579,-12.99712,-4.22805,-63.50046,1008.913
1.697173119,-34.66813,1.992595,-96.52323,0.242484,0.05629962,0.985427,-12.99712,-4.22805,-63.50046,1008.913
1.702103138,-35.03548,1.75264,-95.67031,0.2225037,0.07158582,1.006639,-12.99712,-4.22805,-63.50046,1008.913
1.707033157,-34.17834,0.7928231,-94.20817,0.2206392,0.05900839,1.002202,-12.99712,-4.22805,-63.50046,1008.911
1.711963177,-34.17834,1.152755,-93.05063,0.2543045,0.02740848,0.9659827,-12.99712,-4.22805,-63.50046,1008.911
1.716893673,-33.62732,1.152755,-92.07587,0.2509038,0.02786554,0.9674261,-13.39364,-2.724949,-63.57316,1008.911
1.721823692,-33.19876,1.152755,-90.97926,0.2504113,0.03122452,0.9755787,-13.39364,-2.724949,-63.57316,1008.911
1.729218960,-32.70896,1.152755,-89.57803,0.2543325,0.02593182,0.9745559,-13.39364,-2.724949,-63.57316,1008.911
1.734149456,-32.15795,1.392709,-88.60327,0.2441466,0.02296911,0.9721547,-13.39364,-2.724949,-63.57316,1008.911
1.739074707,-31.7906,1.272732,-87.81128,0.2451609,0.02052007,0.9845327,-13.39364,-2.724949,-63.57316,1008.911
1.744005680,-31.60693,1.452697,-86.89744,0.2446397,0.02248292,0.9740572,-13.39364,-2.724949,-63.57316,1008.911
1.748935699,-31.42326,1.272732,-86.10544,0.2475567,0.02201982,0.9735691,-13.39364,-2.724949,-63.57316,1008.911
1.753865242,-31.17836,1.212743,-85.61806,0.2466419,0.01570639,0.9797021,-13.39364,-2.724949,-63.57316,1008.911
1.758795261,-30.99469,1.152755,-84.88699,0.2543638,0.02157672,0.9749829,-13.39364,-2.724949,-63.57316,1008.911
1.763725758,-30.93347,1.032777,-84.21684,0.2529102,0.02060385,0.9735427,-12.6589,-2.724673,-63.96359,1008.911
1.768655777,-30.62735,1.032777,-83.36391,0.2470686,0.02249895,0.9740528,-12.6589,-2.724673,-63.96359,1008.911
1.773585796,-30.32123,0.9727888,-82.45007,0.2500725,0.01137514,0.9796457,-12.6589,-2.724673,-63.96359,1008.911
1.778515816,-30.01511,1.092766,-81.65808,0.2466273,0.01907988,0.9840361,-12.6589,-2.724673,-63.96359,1008.911
1.783446312,-29.64776,0.7928231,-80.80516,0.2465734,0.02681977,0.9841254,-12.6589,-2.724673,-63.96359,1008.911
1.788376331,-29.46409,0.7928231,-79.70855,0.2490434,0.01624006,0.9682502,-12.6589,-2.724673,-63.96359,1008.911
1.793306351,-29.03552,0.7328345,-78.61195,0.2523746,0.02833489,0.9755417,-12.6589,-2.724673,-63.96359,1008.911
1.798236370,-28.48451,0.4928802,-77.57626,0.2537928,0.0312738,0.9665054,-12.6589,-2.724673,-63.96359,1008.911
1.803166866,-28.05594,0.6728459,-76.29688,0.2654952,0.02601967,0.9697636,-12.6589,-2.724673,-63.96359,1008.911
1.808096886,-27.68859,0.7328345,-75.0175,0.2664478,0.02844763,0.9688353,-12.6589,-2.724673,-63.96359,1008.911
1.813026905,-26.77024,0.9727888,-73.61628,0.2606091,0.02794378,0.9626364,-12.30362,-2.349671,-64.41393,1008.911
1.817956924,-26.21922,1.272732,-71.91044,0.2654706,0.02940729,0.9693254,-12.30362,-2.349671,-64.41393,1008.911
1.822886944,-25.30086,1.33272,-70.50922,0.2625634,0.03129336,0.9793744,-12.30362,-2.349671,-64.41393,1008.911
1.827817440,-25.11719,1.272732,-69.04707,0.2605805,0.03516885,0.9732188,-12.30362,-2.349671,-64.41393,1008.915
1.832747459,-24.68862,1.032777,-67.46308,0.265495,0.02745678,0.9745525,-12.30362,-2.349671,-64.41393,1008.915
1.837677479,-24.19883,1.092766,-65.87909,0.2581766,0.0312857,0.9722242,-12.30362,-2.349671,-64.41393,1008.915
1.842607975,-23.52536,1.212743,-64.41695,0.2567272,0.03126478,0.9760444,-12.30362,-2.349671,-64.41393,1008.915
1.847537994,-23.09679,1.032777,-63.07664,0.2586929,0.02789282,0.9755247,-12.30362,-2.349671,-64.41393,1008.915
1.852468014,-22.607,0.6728459,-61.49265,0.2606021,0.03178547,0.9722254,-12.30362,-2.349671,-64.41393,1008.915
1.857397556,-21.81109,0.7928231,-60.03051,0.2620767,0.02745976,0.9659687,-12.30362,-2.349671,-64.41393,1008.915
1.862327576,-21.26007,0.8528116,-58.38559,0.2683746,0.03279436,0.975563,-11.9316,-1.59413,-63.99055,1008.915
1.867258549,-20.52538,0.9128002,-56.61883,0.2664257,0.03135291,0.9679143,-11.9316,-1.59413,-63.99055,1008.915
1.872188091,-20.15804,0.7928231,-55.15668,0.2678781,0.0337643,0.9736662,-11.9316,-1.59413,-63.99055,1008.915
1.877118111,-19.42335,0.8528116,-53.45085,0.2644847,0.03373197,0.9770128,-11.9316,-1.59413,-63.99055,1008.915
1.882048130,-18.87234,0.6728459,-51.68409,0.2664222,0.03327376,0.9727087,-11.9316,-1.59413,-63.99055,1008.915
1.886978626,-18.13765,0.7328345,-50.1001,0.2639948,0.0313397,0.9669642,-11.9316,-1.59413,-63.99055,1008.915
1.891908646,-17.64786,0.7928231,-48.39426,0.2678607,0.03570492,0.9717796,-11.9316,-1.59413,-63.99055,1008.915
1.896842003,-17.03562,0.4928802,-46.6275,0.2678941,0.02990989,0.9683722,-11.9316,-1.59413,-63.99055,1008.915
1.901768684,-16.42338,0.4928802,-44.79982,0.2708027,0.0299376,0.9655036,-11.9316,-1.59413,-63.99055,1008.915
1.909163952,-15.38257,0.5528688,-41.93645,0.2746583,0.03335933,0.9621951,-11.53845,-2.343403,-63.61281,1008.915
1.914094448,-14.77032,0.6728459,-40.16969,0.2755718,0.04254839,0.9651627,-11.53845,-2.343403,-63.61281,1008.915
1.919024467,-13.79074,0.5528688,-37.97647,0.2784712,0.04546301,0.967577,-11.53845,-2.343403,-63.61281,1008.915
1.923954487,-13.23972,0.6728459,-35.72233,0.2741041,0.0444695,0.9666192,-11.53845,-2.343403,-63.61281,1008.915
1.928884506,-12.07647,0.372903,-33.52911,0.2716062,0.05508876,0.9691325,-11.53845,-2.343403,-63.61281,1008.915
1.933811188,-11.34178,0.372903,-31.09221,0.2740359,0.05654048,0.9743942,-11.53845,-2.343403,-63.61281,1008.915
1.938740730,-10.30097,0.2529259,-28.53345,0.277852,0.06576572,0.9716298,-11.53845,-2.343403,-63.61281,1008.915
1.943670750,-9.260163,0.1929373,-25.42639,0.2738824,0.07447994,0.9607614,-11.53845,-2.343403,-63.61281,1008.915
1.948600769,-8.280579,0.1929373,-22.5021,0.2797018,0.07692724,0.9641192,-11.53845,-2.343403,-63.61281,1008.915
1.953531265,-7.056099,0.07296016,-19.33412,0.2796648,0.08224841,0.9641806,-11.53845,-2.343403,-63.61281,1008.913
1.958464622,-6.015291,-0.04701699,-16.04429,0.2864781,0.08131733,0.9670204,-12.30378,-1.595214,-63.98347,1008.913
1.963391304,-4.545915,0.2529259,-12.69354,0.285953,0.08472293,0.9594249,-12.30378,-1.595214,-63.98347,1008.913
1.968321800,-3.443882,0.07296016,-9.281866,0.2835519,0.08227264,0.9646508,-12.30378,-1.595214,-63.98347,1008.913
1.973251343,-2.280625,0.2529259,-6.05296,0.2840542,0.07889953,0.9612703,-12.30378,-1.595214,-63.98347,1008.913
1.978181839,-1.056145,0.1329487,-2.763133,0.2826349,0.07356733,0.9616888,-12.30378,-1.595214,-63.98347,1008.913
1.983111858,-0.1377845,0.1929373,0.1002363,0.2794016,0.05223336,0.9705166,-12.30378,-1.595214,-63.98347,1008.913
1.988041878,-0.1990085,0.01297158,1.74515,0.2734006,0.004807458,0.9623459,-12.30378,-1.595214,-63.98347,1008.913
1.992971897,0.2907836,0.4328916,2.354378,0.2698307,-0.04308474,0.953688,-12.30378,-1.595214,-63.98347,1008.912
1.997902393,0.4744557,0.2529259,2.110687,0.2626684,-0.0543253,0.976002,-12.30378,-1.595214,-63.98347,1008.912
2.002832413,0.2907836,0.1929373,1.196846,0.2578647,-0.05970255,0.984062,-12.30378,-1.595214,-63.98347,1008.912
2.007762432,0.1683356,0.01297158,0.2830045,0.2582914,-0.05290999,0.9784126,-11.93729,-1.218005,-63.99482,1008.912
2.012692928,0.1071116,-0.2269827,-0.08253194,0.2591616,-0.03791178,0.9800155,-11.93729,-1.218005,-63.99482,1008.912
2.017622948,0.1071116,-0.2869713,-0.2043774,0.2580567,-0.02144409,0.9711398,-11.93729,-1.218005,-63.99482,1008.912
2.022552967,-0.07656047,-0.5269256,-0.08253194,0.2771969,0.01406095,0.9500373,-11.93729,-1.218005,-63.99482,1008.912
2.027482986,0.1683356,0.2529259,1.014077,0.2792118,0.004871353,0.9537455,-11.93729,-1.218005,-63.99482,1008.912
2.032412529,0.3520077,0.3129145,1.318691,0.2784661,-0.02419355,0.9648657,-11.93729,-1.218005,-63.99482,1008.914
2.037343502,0.3520077,0.3129145,1.806073,0.2737275,-0.04020043,0.9685081,-11.93729,-1.218005,-63.99482,1008.914
2.042273045,0.7193519,0.4928802,1.562382,0.2655244,-0.04560152,0.9770515,-11.93729,-1.218005,-63.99482,1008.914
2.047203064,0.4744557,0.372903,1.196846,0.251928,-0.04569834,0.9794621,-11.93729,-1.218005,-63.99482,1008.914
2.160595894,-0.01533645,0.07296016,0.03931354,0.2653816,-0.0271981,0.9701053,-11.55958,-0.8385882,-63.56717,1008.912
2.165522099,0.04588758,0.2529259,-0.0216092,0.2639457,-0.02915399,0.9739033,-11.55958,-0.8385882,-63.56717,1008.912
2.167987347,-0.01533645,0.07296016,-0.08253194,0.2630245,-0.03497944,0.9786102,-11.55958,-0.8385882,-63.56717,1008.912
2.172917366,0.04588758,0.01297158,0.03931354,0.2639429,-0.03058685,0.9676828,-11.55958,-0.8385882,-63.56717,1008.912
2.177847862,-0.01533645,-0.04701699,-0.0216092,0.2649178,-0.03106419,0.9676754,-11.55958,-0.8385882,-63.56717,1008.912
2.182777405,0.04588758,-0.04701699,0.03931354,0.2721896,-0.03003731,0.9638557,-11.55958,-0.8385882,-63.56717,1008.912
2.187707901,0.1071116,-0.1070056,0.03931354,0.2745932,-0.02711176,0.9614987,-11.55958,-0.8385882,-63.56717,1008.912
2.192637920,0.1071116,0.07296016,0.03931354,0.2697406,-0.02715088,0.9638936,-11.55958,-0.8385882,-63.56717,1008.915
2.197567940,0.1683356,0.1329487,0.161159,0.2668586,-0.03200614,0.9633659,-11.55958,-0.8385882,-63.56717,1008.915
2.202497482,0.1071116,0.07296016,0.1002363,0.2634661,-0.03060277,0.9719785,-11.57633,-1.219127,-64.44089,1008.915
2.207428455,-0.07656047,0.07296016,0.03931354,0.2654005,-0.02722494,0.9791723,-11.57633,-1.219127,-64.44089,1008.915
2.212358475,0.1683356,0.07296016,-0.0216092,0.2644269,-0.02962323,0.9700792,-11.57633,-1.219127,-64.44089,1008.915
2.217288017,0.04588758,-0.1070056,0.03931354,0.2687895,-0.02910215,0.9672135,-11.57633,-1.219127,-64.44089,1008.915
2.222218037,-0.1377845,0.01297158,0.1002363,0.2693095,-0.03345829,0.9690713,-11.57633,-1.219127,-64.44089,1008.915
2.227149010,0.04588758,-0.1070056,-0.0216092,0.2678034,-0.02717218,0.9667605,-11.57633,-1.219127,-64.44089,1008.915
2.232078552,-0.07656047,0.07296016,0.03931354,0.2683155,-0.03151701,0.9648005,-11.57633,-1.219127,-64.44089,1008.915
2.237008571,-0.01533645,0.07296016,0.1002363,0.2668573,-0.02913051,0.9724664,-11.57633,-1.219127,-64.44089,1008.913
2.241938591,0.04588758,0.01297158,0.1002363,0.2654243,-0.03348535,0.9695556,-11.57633,-1.219127,-64.44089,1008.913
2.246869087,0.1071116,-0.1070056,0.1002363,0.2624831,-0.02867704,0.9729571,-11.57633,-1.219127,-64.44089,1008.913
2.251799106,0.04588758,-0.1070056,0.1002363,0.2664066,-0.03445207,0.9714515,-11.55943,-1.593046,-63.99763,1008.913
2.259194374,0.1071116,0.07296016,0.161159,0.2678144,-0.02718772,0.9720097,-11.55943,-1.593046,-63.99763,1008.913
2.264124393,-0.01533645,-0.1070056,-0.0216092,0.2658598,-0.0276631,0.9648495,-11.55943,-1.593046,-63.99763,1008.913
2.269054413,0.04588758,0.07296016,0.03931354,0.2726732,-0.02859418,0.9676893,-11.55943,-1.593046,-63.99763,1008.913
2.273984909,-0.01533645,0.1329487,0.1002363,0.2663973,-0.03395985,0.9685938,-11.55943,-1.593046,-63.99763,1008.913
2.278914928,-0.1377845,0.07296016,0.03931354,0.2683155,-0.03151701,0.9648005,-11.55943,-1.593046,-63.99763,1008.913
2.283844948,-0.01533645,0.07296016,-0.0216092,0.2668856,-0.03348138,0.9714618,-11.55943,-1.593046,-63.99763,1008.913
2.288774967,0.1071116,-0.1070056,0.161159,0.2688305,-0.03203428,0.9772015,-11.55943,-1.593046,-63.99763,1008.913
2.293705463,-0.01533645,0.07296016,-0.1434547,0.2658685,-0.02863341,0.9657927,-11.55943,-1.593046,-63.99763,1008.913
2.298635483,-0.01533645,-0.1070056,-0.0216092,0.2693075,-0.03345546,0.9681169,-11.55943,-1.593046,-63.99763,1008.913
2.303565502,0.1071116,0.07296016,0.03931354,0.2707396,-0.03053632,0.9657616,-11.5708,-0.8407955,-64.00616,1008.913
2.308495521,0.04588758,0.07296016,-0.0216092,0.271181,-0.02472255,0.9639189,-11.5708,-0.8407955,-64.00616,1008.913
2.313426018,-0.01533645,-0.04701699,0.03931354,0.2683314,-0.03153961,0.9724359,-11.5708,-0.8407955,-64.00616,1008.913
2.318356037,-0.07656047,0.01297158,0.161159,0.2663592,-0.02863727,0.968178,-11.5708,-0.8407955,-64.00616,1008.913
2.323286056,0.04588758,0.1929373,0.161159,0.2654136,-0.03251221,0.9676579,-11.5708,-0.8407955,-64.00616,1008.913
2.328215599,-0.01533645,-0.04701699,0.161159,0.2659166,-0.03157542,0.9791213,-11.5708,-0.8407955,-64.00616,1008.913
2.333145618,-0.01533645,-0.04701699,-0.0216092,0.2634622,-0.03203423,0.9652808,-11.5708,-0.8407955,-64.00616,1008.913
2.338076591,-0.01533645,-0.1669942,-0.0216092,0.2697513,-0.02812402,0.9657913,-11.5708,-0.8407955,-64.00616,1008.913
2.343006134,0.04588758,-0.04701699,0.03931354,0.2702388,-0.02668653,0.9715338,-11.5708,-0.8407955,-64.00616,1008.913
2.347936153,0.04588758,-0.04701699,-0.08253194,0.2712106,-0.02811723,0.9667432,-11.93729,-1.218005,-63.99482,1008.913
2.352867126,0.1071116,0.07296016,-0.0216092,0.2663515,-0.02766836,0.9677119,-11.93729,-1.218005,-63.99482,1008.913
2.357796669,-0.01533645,-0.04701699,-0.0216092,0.2659107,-0.03300405,0.9714691,-11.93729,-1.218005,-63.99482,1008.911
2.362725258,-0.07656047,0.01297158,-0.08253194,0.2624983,-0.03157243,0.9705375,-11.93729,-1.218005,-63.99482,1008.911
2.367652893,0.1071116,0.07296016,0.161159,0.265396,-0.02913448,0.9705601,-11.93729,-1.218005,-63.99482,1008.911
2.372582912,-0.1377845,-0.1070056,0.03931354,0.2688226,-0.03202298,0.9733839,-11.93729,-1.218005,-63.99482,1008.911
2.377513409,-0.01533645,-0.1070056,-0.0216092,0.2649103,-0.02913769,0.970561,-11.93729,-1.218005,-63.99482,1008.911
2.382443428,-0.01533645,0.01297158,0.1002363,0.2673703,-0.03587146,0.9628432,-11.93729,-1.218005,-63.99482,1008.911
2.387373447,-0.01533645,0.07296016,0.03931354,0.2702386,-0.02764413,0.9681821,-11.93729,-1.218005,-63.99482,1008.911
2.392308712,0.04588758,-0.1070056,0.03931354,0.2707458,-0.0295872,0.9719766,-11.93729,-1.218005,-63.99482,1008.911
2.397233963,-0.01533645,0.07296016,-0.2043774,0.2649381,-0.03540375,0.9628531,-11.55943,-1.593046,-63.99763,1008.916
2.402163982,0.04588758,-0.04701699,0.1002363,0.2668632,-0.03153369,0.9671891,-11.55943,-1.593046,-63.99763,1008.916
2.407094478,-0.01533645,0.01297158,0.03931354,0.2688148,-0.03105408,0.9729179,-11.55943,-1.593046,-63.99763,1008.916
2.412023544,-0.01533645,-0.1070056,-0.0216092,0.2673444,-0.03200293,0.963365,-11.55943,-1.593046,-63.99763,1008.916
2.416954517,-0.1377845,0.01297158,-0.08253194,0.2673458,-0.03248385,0.962405,-11.55943,-1.593046,-63.99763,1008.916
2.421884060,0.04588758,-0.1070056,-0.0216092,0.2678227,-0.03007323,0.9662497,-11.55943,-1.593046,-63.99763,1008.916
2.426814079,-0.1377845,-0.1070056,0.03931354,0.2712239,-0.02861509,0.9715097,-11.55943,-1.593046,-63.99763,1008.916
2.434209347,-0.07656047,0.01297158,0.161159,0.2673492,-0.03057289,0.9705399,-11.55943,-1.593046,-63.99763,1008.916
2.439139366,0.1071116,0.1329487,0.1002363,0.2658869,-0.03057544,0.9681565,-11.55943,-1.593046,-63.99763,1008.916
2.444069862,-0.01533645,-0.1070056,-0.1434547,0.2673452,-0.03056724,0.968631,-11.55943,-1.593046,-63.99763,1008.916
2.448999882,-0.01533645,0.07296016,-0.0216092,0.2649412,-0.03301328,0.9724253,-11.18725,-1.591962,-64.00471,1008.916
2.453929901,0.1071116,-0.1669942,0.1002363,0.2707634,-0.03296493,0.9690743,-11.18725,-1.591962,-64.00471,1008.916
2.458859920,-0.01533645,-0.1669942,-0.0216092,0.2682947,-0.02909265,0.9629195,-11.18725,-1.591962,-64.00471,1008.916
2.463790417,0.04588758,-0.04701699,-0.08253194,0.2692985,-0.03344275,0.9638219,-11.18725,-1.591962,-64.00471,1008.916
2.468720436,-0.01533645,0.1329487,-0.0216092,0.2634686,-0.03252221,0.966707,-11.18725,-1.591962,-64.00471,1008.916
2.473650455,0.1071116,0.1329487,0.03931354,0.2707717,-0.03345573,0.9714548,-11.18725,-1.591962,-64.00471,1008.916
2.478580475,-0.07656047,0.07296016,0.1002363,0.2654249,-0.03300725,0.97147,-11.18725,-1.591962,-64.00471,1008.918
2.483510971,-0.01533645,0.07296016,-0.08253194,0.2707385,-0.02909781,0.9700733,-11.18725,-1.591962,-64.00471,1008.918
2.488440990,-0.07656047,-0.1669942,-0.0216092,0.2678311,-0.03200114,0.9638413,-11.18725,-1.591962,-64.00471,1008.918
2.493371010,-0.2602325,-0.1669942,-0.0216092,0.2654323,-0.03349665,0.9733734,-11.18725,-1.591962,-64.00471,1008.918
2.498301029,0.1071116,-0.04701699,-0.0216092,0.2712096,-0.02811581,0.9662659,-11.55943,-1.593046,-63.99763,1008.918
2.503231525,-0.1377845,-0.1070056,-0.0216092,0.2707489,-0.03102854,0.9686193,-11.55943,-1.593046,-63.99763,1008.918
2.508161545,-0.07656047,-0.1070056,-0.1434547,0.2668999,-0.03637537,0.968565,-11.55943,-1.593046,-63.99763,1008.918
2.513091564,0.1071116,0.07296016,0.161159,0.2731586,-0.02811147,0.9691257,-11.55943,-1.593046,-63.99763,1008.918
2.518021107,0.04588758,0.01297158,0.03931354,0.2648724,-0.02525221,0.9653563,-11.55943,-1.593046,-63.99763,1008.918
2.522952080,-0.07656047,0.01297158,-0.0216092,0.2644499,-0.03109282,0.9762662,-11.55943,-1.593046,-63.99763,1008.918
2.527882099,-0.01533645,0.01297158,-0.1434547,0.2658685,-0.02863341,0.9657927,-11.55943,-1.593046,-63.99763,1008.918
2.532811642,-0.07656047,-0.1669942,-0.0216092,0.2678298,-0.02912552,0.9729419,-11.55943,-1.593046,-63.99763,1008.918
2.537741661,0.04588758,0.01297158,-0.08253194,0.2678415,-0.03010006,0.9753167,-11.55943,-1.593046,-63.99763,1008.918
2.542672157,0.04588758,-0.1070056,0.161159,0.2658612,-0.02814401,0.9638894,-11.55943,-1.593046,-63.99763,1008.918
2.547602177,0.04588758,0.07296016,-0.0216092,0.2692752,-0.02909895,0.9672126,-12.30378,-1.595214,-63.98347,1008.918
2.552532196,-0.07656047,0.01297158,0.03931354,0.2678256,-0.03007746,0.9676813,-12.30378,-1.595214,-63.98347,1008.918
2.557462215,-0.1377845,-0.1070056,0.1002363,0.2668542,-0.03152098,0.9628943,-12.30378,-1.595214,-63.98347,1008.916
2.562388897,-0.1377845,-0.04701699,0.1002363,0.2605392,-0.03012555,0.9676945,-12.30378,-1.595214,-63.98347,1008.916
2.567318916,-0.1377845,0.01297158,-0.0216092,0.2668644,-0.03057751,0.971018,-12.30378,-1.595214,-63.98347,1008.916
2.572248936,-0.01533645,0.01297158,0.03931354,0.2687736,-0.02668485,0.9677187,-12.30378,-1.595214,-63.98347,1008.916
2.577178955,0.04588758,-0.1070056,0.03931354,0.2673738,-0.0339605,0.9709781,-12.30378,-1.595214,-63.98347,1008.916
2.582108498,-0.1990085,-0.04701699,0.1002363,0.2688233,-0.03298199,0.9705094,-12.30378,-1.595214,-63.98347,1008.916
2.587039471,-0.07656047,0.01297158,0.03931354,0.2692766,-0.02957987,0.9662527,-12.30378,-1.595214,-63.98347,1008.916
2.591969013,-0.01533645,-0.2269827,-0.0216092,0.2683637,-0.03589612,0.9733402,-12.30378,-1.595214,-63.98347,1008.916
2.596899032,-0.1377845,-0.04701699,0.161159,0.2702751,-0.0310487,0.9743469,-12.30946,-1.219089,-63.98774,1008.916
2.601834297,0.1071116,-0.04701699,0.1002363,0.2653869,-0.02768467,0.9710541,-12.30946,-1.219089,-63.98774,1008.921
2.609224319,-0.07656047,-0.1070056,-0.0216092,0.2678076,-0.02861493,0.9638804,-12.30946,-1.219089,-63.98774,1008.921
2.614154816,0.04588758,0.07296016,0.161159,0.2649402,-0.03301187,0.971948,-12.30946,-1.219089,-63.98774,1008.921
2.619084835,-0.07656047,0.01297158,0.1002363,0.270743,-0.03102007,0.9657561,-12.30946,-1.219089,-63.98774,1008.921
2.624014854,0.1071116,-0.1070056,-0.0216092,0.2678044,-0.02717359,0.9672376,-12.30946,-1.219089,-63.98774,1008.921
2.628944874,-0.01533645,0.01297158,-0.0216092,0.2702319,-0.02667665,0.9681933,-12.30946,-1.219089,-63.98774,1008.921
2.633875370,-0.07656047,0.07296016,0.03931354,0.2673106,-0.0257284,0.9682097,-12.30946,-1.219089,-63.98774,1008.921
2.638805389,-0.2602325,-0.04701699,-0.0216092,0.2624701,-0.02865867,0.9667534,-12.30946,-1.219089,-63.98774,1008.919
2.643735409,0.1071116,0.01297158,-0.0216092,0.2639546,-0.0315614,0.9700577,-12.29416,-1.593322,-63.60719,1008.919
2.648665428,-0.1377845,0.07296016,0.03931354,0.2707501,-0.03246706,0.9643077,-12.29416,-1.593322,-63.60719,1008.919
2.653595924,-0.07656047,-0.2269827,-0.08253194,0.2658776,-0.03008323,0.9652988,-12.29416,-1.593322,-63.60719,1008.919
2.658525944,-0.07656047,-0.1070056,0.1002363,0.263493,-0.03447272,0.9719339,-12.29416,-1.593322,-63.60719,1008.919
2.663455963,0.1071116,0.01297158,0.161159,0.2678342,-0.02961067,0.9734136,-12.29416,-1.593322,-63.60719,1008.919
2.668385982,0.04588758,0.07296016,-0.0216092,0.2658415,-0.02476346,0.9658373,-12.29416,-1.593322,-63.60719,1008.919
2.673316479,-0.07656047,0.07296016,0.03931354,0.2707785,-0.03442322,0.9714437,-12.29416,-1.593322,-63.60719,1008.919
2.678246498,0.04588758,0.01297158,-0.08253194,0.2659204,-0.03397577,0.9728896,-12.29416,-1.593322,-63.60719,1008.919
2.683176517,0.04588758,0.07296016,0.03931354,0.2663808,-0.03202064,0.9671844,-12.29416,-1.593322,-63.60719,1008.919
2.688106537,-0.07656047,0.01297158,-0.0216092,0.2634473,-0.02818123,0.9710521,-12.29416,-1.593322,-63.60719,1008.919
2.693037033,0.1071116,0.07296016,-0.08253194,0.2653787,-0.02863096,0.9638847,-11.5555,-1.215028,-63.62561,1008.919
2.697967052,-0.01533645,0.01297158,0.03931354,0.2624969,-0.03109151,0.9714976,-11.5555,-1.215028,-63.62561,1008.919
2.702896595,0.04588758,-0.04701699,-0.0216092,0.269799,-0.03441833,0.9676276,-11.5555,-1.215028,-63.62561,1008.919
2.707826614,-0.07656047,0.07296016,-0.08253194,0.2673328,-0.02863368,0.9691306,-11.5555,-1.215028,-63.62561,1008.919
2.712757587,0.04588758,0.01297158,0.161159,0.2629482,-0.02768657,0.9662864,-11.5555,-1.215028,-63.62561,1008.919
2.717687130,0.04588758,0.01297158,-0.0216092,0.2668416,-0.02815031,0.9681827,-11.5555,-1.215028,-63.62561,1008.919
2.722617149,-0.01533645,0.1329487,0.2220818,0.265375,-0.02766772,0.9653276,-11.5555,-1.215028,-63.62561,1008.917
2.727547169,0.1071116,0.07296016,-0.08253194,0.2693275,-0.03492082,0.9728723,-11.5555,-1.215028,-63.62561,1008.917
2.732477665,0.1071116,-0.04701699,-0.08253194,0.2702345,-0.02620138,0.9710621,-11.5555,-1.215028,-63.62561,1008.917
2.737407684,-0.07656047,0.07296016,0.03931354,0.2668541,-0.03008388,0.9676831,-11.5555,-1.215028,-63.62561,1008.917
2.742337704,-0.1990085,-0.1070056,0.1002363,0.265426,-0.03300866,0.9719471,-11.9316,-1.59413,-63.99055,1008.917
2.747267723,0.1071116,-0.04701699,0.1002363,0.2653883,-0.02816558,0.9700941,-11.9316,-1.59413,-63.99055,1008.917
2.752198219,-0.07656047,-0.1070056,-0.0216092,0.2678183,-0.02958807,0.9657781,-11.9316,-1.59413,-63.99055,1008.917
2.757128239,-0.07656047,0.1329487,-0.0216092,0.2663798,-0.03201923,0.9667073,-11.9316,-1.59413,-63.99055,1008.917
2.762054443,-0.07656047,-0.1070056,0.161159,0.2702489,-0.02813776,0.971517,-11.9316,-1.59413,-63.99055,1008.915
2.766983986,-0.01533645,-0.04701699,0.03931354,0.2654279,-0.03301149,0.9729016,-11.9316,-1.59413,-63.99055,1008.915
2.771914959,-0.01533645,0.07296016,-0.0216092,0.2688247,-0.0334629,0.9695495,-11.9316,-1.59413,-63.99055,1008.915
2.776844978,0.1071116,-0.04701699,0.03931354,0.2712376,-0.02959247,0.974839,-11.9316,-1.59413,-63.99055,1008.915
2.781774521,0.04588758,-0.1070056,0.1002363,0.2678084,-0.02717924,0.9691465,-11.9316,-1.59413,-63.99055,1008.915
2.789169788,-0.07656047,0.07296016,0.161159,0.2653655,-0.02573839,0.9672587,-12.32068,-1.221296,-64.42673,1008.915
2.794099808,0.1071116,0.07296016,0.03931354,0.2673768,-0.03396474,0.9724097,-12.32068,-1.221296,-64.42673,1008.915
2.799029827,-0.07656047,0.07296016,-0.0216092,0.2692916,-0.03103816,0.968622,-12.32068,-1.221296,-64.42673,1008.915
2.803960323,0.1071116,0.1329487,0.03931354,0.2673243,-0.03053758,0.9586096,-12.32068,-1.221296,-64.42673,1008.918
2.808890343,0.04588758,-0.04701699,0.161159,0.2668866,-0.03348279,0.971939,-12.32068,-1.221296,-64.42673,1008.918
2.813820362,0.1071116,0.01297158,0.161159,0.2658661,-0.02815107,0.9662755,-12.32068,-1.221296,-64.42673,1008.918
2.818750381,-0.1377845,0.01297158,0.03931354,0.2648984,-0.02912074,0.9648345,-12.32068,-1.221296,-64.42673,1008.918
2.823680878,0.1683356,0.07296016,-0.08253194,0.2693263,-0.035877,0.9690434,-12.32068,-1.221296,-64.42673,1008.918
2.828612804,-0.1377845,0.01297158,0.03931354,0.267834,-0.03056827,0.9700619,-12.32068,-1.221296,-64.42673,1008.918
2.833540916,0.04588758,-0.1070056,0.1002363,0.2683148,-0.030558,0.9676749,-12.32068,-1.221296,-64.42673,1008.918
2.838470936,-0.01533645,-0.04701699,0.03931354,0.2697741,-0.03055121,0.9686267,-11.19862,-0.8397117,-64.01324,1008.918
2.843403339,-0.1377845,0.01297158,0.1002363,0.26591,-0.03204504,0.9743436,-11.19862,-0.8397117,-64.01324,1008.918
2.848331451,0.04588758,0.07296016,-0.08253194,0.2668617,-0.02961567,0.9729381,-11.19862,-0.8397117,-64.01324,1008.918
2.853261471,0.04588758,-0.04701699,0.1002363,0.2654222,-0.03204542,0.97339,-11.19862,-0.8397117,-64.01324,1008.918
2.858191490,-0.07656047,0.1929373,0.03931354,0.2717329,-0.03295569,0.9681181,-11.19862,-0.8397117,-64.01324,1008.918
2.863121986,0.04588758,0.1329487,-0.0216092,0.2683017,-0.02910253,0.96626,-11.19862,-0.8397117,-64.01324,1008.918
2.868052006,-0.01533645,-0.1070056,-0.0216092,0.2673777,-0.03396615,0.972887,-11.19862,-0.8397117,-64.01324,1008.918
2.872986317,0.1071116,0.07296016,0.1002363,0.2663603,-0.02863868,0.9686551,-11.19862,-0.8397117,-64.01324,1008.918
2.877911568,-0.01533645,-0.04701699,-0.0216092,0.2658992,-0.0310719,0.9724458,-11.19862,-0.8397117,-64.01324,1008.918
2.882842541,-0.01533645,0.1329487,0.03931354,0.2687833,-0.02765657,0.9691392,-11.19862,-0.8397117,-64.01324,1008.919
2.887772560,0.04588758,-0.1070056,-0.0216092,0.2658939,-0.03058533,0.971497,-11.94297,-0.8418798,-63.99908,1008.919
2.892702103,-0.07656047,0.01297158,0.03931354,0.2707242,-0.02859852,0.9648296,-11.94297,-0.8418798,-63.99908,1008.919
2.897632122,-0.1990085,0.07296016,-0.08253194,0.2654178,-0.03156026,0.9729184,-11.94297,-0.8418798,-63.99908,1008.919
2.902563095,-0.07656047,0.1329487,0.03931354,0.2673335,-0.02959269,0.9662561,-11.94297,-0.8418798,-63.99908,1008.919
2.907492638,-0.01533645,0.07296016,-0.0216092,0.2649071,-0.03009105,0.9657777,-11.94297,-0.8418798,-63.99908,1008.919
2.912422657,-0.07656047,-0.1669942,0.03931354,0.2659121,-0.03348497,0.9705091,-11.94297,-0.8418798,-63.99908,1008.919
2.917352676,0.04588758,0.07296016,0.03931354,0.2707324,-0.02765223,0.9719989,-11.94297,-0.8418798,-63.99908,1008.919
2.922283173,0.04588758,0.01297158,-0.0216092,0.267848,-0.03202515,0.9719539,-11.94297,-0.8418798,-63.99908,1008.922
2.927213192,-0.1377845,-0.04701699,0.1002363,0.267354,-0.03153755,0.9695744,-11.94297,-0.8418798,-63.99908,1008.922
2.932143211,-0.01533645,-0.1070056,0.03931354,0.2649119,-0.02866101,0.9729527,-11.94297,-0.8418798,-63.99908,1008.922
2.937073231,-0.07656047,0.01297158,-0.0216092,0.2678492,-0.03346367,0.9676423,-11.93729,-1.218005,-63.99482,1008.922
2.942003727,-0.01533645,-0.1070056,-0.1434547,0.2668795,-0.0320358,0.9733874,-11.93729,-1.218005,-63.99482,1008.922
2.946933746,0.1071116,0.07296016,0.2220818,0.2687738,-0.02812195,0.9629298,-11.93729,-1.218005,-63.99482,1008.922
2.951863766,-0.1377845,0.01297158,0.03931354,0.2678047,-0.026216,0.9705892,-11.93729,-1.218005,-63.99482,1008.922
2.956793785,0.04588758,-0.1070056,0.1002363,0.2683297,-0.03057919,0.9748331,-11.93729,-1.218005,-63.99482,1008.922
2.964184761,0.04588758,-0.04701699,0.03931354,0.269766,-0.02910281,0.9695979,-11.93729,-1.218005,-63.99482,1008.924
2.969115734,0.1071116,0.01297158,0.03931354,0.2668555,-0.0305648,0.9667231,-11.93729,-1.218005,-63.99482,1008.924
2.974045753,0.04588758,-0.1070056,0.03931354,0.2707864,-0.03443452,0.9752613,-11.93729,-1.218005,-63.99482,1008.924
2.978978157,-0.01533645,0.1329487,0.1002363,0.2682936,-0.02765413,0.9672311,-11.93729,-1.218005,-63.99482,1008.924
2.983905315,0.04588758,-0.1070056,-0.1434547,0.2658907,-0.03153869,0.9667137,-11.58201,-0.8430023,-64.44516,1008.924
2.988835812,0.04588758,0.01297158,-0.0216092,0.2659248,-0.03446092,0.9733613,-11.58201,-0.8430023,-64.44516,1008.924
2.993765831,0.1071116,-0.04701699,0.03931354,0.2654096,-0.03250656,0.965749,-11.58201,-0.8430023,-64.44516,1008.924
2.998695850,0.04588758,0.01297158,0.03931354,0.2683013,-0.02862303,0.9676972,-11.58201,-0.8430023,-64.44516,1008.924
3.003625870,0.1071116,0.07296016,-0.08253194,0.2688026,-0.03055762,0.9686284,-11.58201,-0.8430023,-64.44516,1008.924
3.008556366,0.04588758,0.01297158,0.03931354,0.2673622,-0.03442306,0.9638143,-11.58201,-0.8430023,-64.44516,1008.924
3.013486385,-0.1377845,0.1329487,-0.08253194,0.2687758,-0.02812478,0.9638842,-11.58201,-0.8430023,-64.44516,1008.924
3.018416405,-0.2602325,0.01297158,-0.0216092,0.2712112,-0.02763913,0.9686575,-11.58201,-0.8430023,-64.44516,1008.924
3.023346424,-0.01533645,0.01297158,0.161159,0.269273,-0.03005372,0.9629066,-11.58201,-0.8430023,-64.44516,1008.924
3.028276920,0.04588758,0.07296016,-0.0216092,0.2634323,-0.02816004,0.9638938,-11.58201,-0.8430023,-64.44516,1008.924
3.033206940,0.1071116,0.01297158,0.161159,0.2649493,-0.03446169,0.9714541,-11.9316,-1.59413,-63.99055,1008.924
3.038136959,-0.2602325,0.01297158,0.1002363,0.2697839,-0.03296004,0.9652583,-11.9316,-1.59413,-63.99055,1008.924
3.043066978,-0.01533645,0.01297158,0.03931354,0.2692533,-0.02523607,0.9696434,-11.9316,-1.59413,-63.99055,1008.924
3.047997475,-0.01533645,-0.1669942,-0.0216092,0.2678404,-0.03249335,0.9666991,-11.9316,-1.59413,-63.99055,1008.924
3.052927494,0.04588758,0.07296016,-0.0216092,0.2668151,-0.02475988,0.9667901,-11.9316,-1.59413,-63.99055,1008.924
3.057857513,-0.07656047,0.01297158,0.03931354,0.2726773,-0.03003693,0.9648093,-11.9316,-1.59413,-63.99055,1008.924
3.062787533,-0.07656047,0.01297158,0.03931354,0.2649398,-0.03253236,0.9733853,-11.9316,-1.59413,-63.99055,1008.924
3.067718029,0.1071116,-0.1070056,0.03931354,0.2658883,-0.03105636,0.9671965,-11.9316,-1.59413,-63.99055,1008.924
3.072648048,-0.01533645,-0.04701699,0.03931354,0.2653829,-0.02767901,0.9691453,-11.9316,-1.59413,-63.99055,1008.924
3.077578068,0.1683356,-0.04701699,0.1002363,0.2673532,-0.03057854,0.9724488,-11.9316,-1.59413,-63.99055,1008.924
3.082509041,-0.07656047,-0.04701699,0.03931354,0.269291,-0.03151625,0.9667076,-11.9485,-1.220212,-64.43382,1008.924
3.087438583,-0.07656047,-0.1070056,-0.08253194,0.272691,-0.03101431,0.9681387,-11.9485,-1.220212,-64.43382,1008.926
3.092368603,-0.1990085,0.01297158,0.1002363,0.2678266,-0.03007888,0.9681586,-11.9485,-1.220212,-64.43382,1008.926
3.097300530,-0.1377845,0.01297158,-0.08253194,0.2688082,-0.03152369,0.9681401,-11.9485,-1.220212,-64.43382,1008.926
3.102228165,0.1071116,0.07296016,-0.0216092,0.2664088,-0.0334973,0.9757575,-11.9485,-1.220212,-64.43382,1008.926
3.107158661,-0.07656047,0.01297158,-0.08253194,0.2644379,-0.03107587,0.9705396,-11.9485,-1.220212,-64.43382,1008.926
3.112093449,-0.01533645,0.1329487,0.2830045,0.2678367,-0.0315301,0.9681419,-11.9485,-1.220212,-64.43382,1008.926
3.117018700,-0.01533645,0.01297158,-0.0216092,0.2668723,-0.03298351,0.9666952,-11.9485,-1.220212,-64.43382,1008.926
3.121948719,-0.01533645,-0.1070056,-0.0216092,0.2707521,-0.03246988,0.9652621,-11.9485,-1.220212,-64.43382,1008.926
3.126879215,-0.01533645,0.1329487,-0.0216092,0.2693138,-0.03394344,0.969543,-11.9485,-1.220212,-64.43382,1008.928
3.131809235,0.1071116,0.01297158,0.03931354,0.2614952,-0.02818134,0.9667607,-12.31892,-1.975438,-64.79448,1008.928
3.139204502,0.04588758,-0.04701699,-0.1434547,0.264439,-0.03107728,0.9710168,-12.31892,-1.975438,-64.79448,1008.928
3.144134522,-0.07656047,0.07296016,0.03931354,0.2663747,-0.03057506,0.9691101,-12.31892,-1.975438,-64.79448,1008.928
3.149064541,0.04588758,0.01297158,-0.08253194,0.2663858,-0.03202771,0.9695706,-12.31892,-1.975438,-64.79448,1008.928
3.153994560,0.04588758,-0.04701699,0.1002363,0.2663898,-0.03203336,0.9714794,-12.31892,-1.975438,-64.79448,1008.928
3.158925056,-0.07656047,0.01297158,-0.0216092,0.2653921,-0.02912883,0.9686513,-12.31892,-1.975438,-64.79448,1008.928
3.163850784,0.2907836,-0.1070056,-0.2043774,0.2673335,-0.02959269,0.9662561,-12.31892,-1.975438,-64.79448,1008.928
3.168780804,0.1071116,0.01297158,-0.08253194,0.2702759,-0.03200771,0.9714724,-12.31892,-1.975438,-64.79448,1008.928
3.173710823,0.04588758,0.01297158,-0.1434547,0.2707409,-0.02958014,0.9695906,-12.31892,-1.975438,-64.79448,1008.928
3.178641319,0.04588758,0.07296016,0.03931354,0.2678454,-0.03250042,0.9690851,-12.29809,-1.971339,-63.97921,1008.928
3.183571339,-0.01533645,-0.1070056,-0.0216092,0.2644722,-0.0354352,0.9723983,-12.29809,-1.971339,-63.97921,1008.928
3.188501358,-0.01533645,-0.04701699,-0.08253194,0.2649362,-0.03300622,0.9700392,-12.29809,-1.971339,-63.97921,1008.928
3.193431377,0.04588758,-0.2269827,-0.08253194,0.2663804,-0.03154114,0.9686217,-12.29809,-1.971339,-63.97921,1008.928
3.198365212,0.04588758,-0.04701699,0.03931354,0.268808,-0.02864949,0.9777179,-12.29809,-1.971339,-63.97921,1008.928
3.203291893,-0.01533645,0.01297158,0.03931354,0.272231,-0.03584364,0.9642661,-12.29809,-1.971339,-63.97921,1008.928
3.208221912,0.04588758,-0.1070056,0.03931354,0.26737,-0.03299725,0.9724209,-12.29809,-1.971339,-63.97921,1008.928
3.213151932,-0.01533645,0.1329487,-0.08253194,0.2688186,-0.03201733,0.971475,-12.29809,-1.971339,-63.97921,1008.928
3.218082428,-0.07656047,0.01297158,-0.08253194,0.2712538,-0.03248928,0.9728967,-12.29809,-1.971339,-63.97921,1008.928
3.223012447,0.04588758,0.01297158,0.03931354,0.2673433,-0.03056441,0.9676766,-12.29809,-1.971339,-63.97921,1008.928
3.227942467,-0.01533645,-0.1669942,-0.08253194,0.2707775,-0.03442181,0.9709664,-11.93553,-1.972147,-64.36256,1008.928
3.232872486,0.1071116,-0.1669942,0.1002363,0.2648964,-0.02911791,0.9638801,-11.93553,-1.972147,-64.36256,1008.928
3.237802982,-0.1377845,0.1329487,-0.0216092,0.263451,-0.02914448,0.9696093,-11.93553,-1.972147,-64.36256,1008.928
3.242733002,0.1071116,-0.04701699,-0.08253194,0.2663656,-0.02912525,0.969604,-11.93553,-1.972147,-64.36256,1008.928
3.247663975,0.1683356,-0.04701699,-0.0216092,0.266378,-0.03105881,0.9691045,-11.93553,-1.972147,-64.36256,1008.932
3.252593040,-0.01533645,0.1329487,-0.0216092,0.2692492,-0.02762512,0.959594,-11.93553,-1.972147,-64.36256,1008.932
3.257523537,-0.01533645,0.07296016,0.1002363,0.2692931,-0.02912438,0.9758025,-11.93553,-1.972147,-64.36256,1008.932
3.262453556,0.1071116,-0.04701699,-0.0216092,0.2653807,-0.02863379,0.9648392,-11.93553,-1.972147,-64.36256,1008.932
3.267383098,0.04588758,0.1329487,0.03931354,0.2717238,-0.03150588,0.968612,-11.93553,-1.972147,-64.36256,1008.932
3.272313118,-0.1377845,0.01297158,-0.1434547,0.2654136,-0.03251221,0.9676579,-11.93553,-1.972147,-64.36256,1008.932
3.277244091,0.1683356,0.2529259,0.03931354,0.262968,-0.03010952,0.9676901,-11.9485,-1.220212,-64.43382,1008.932
3.282177925,0.04588758,-0.04701699,0.1002363,0.268293,-0.02813222,0.9653167,-11.9485,-1.220212,-64.43382,1008.932
3.287103653,0.04588758,-0.1669942,-0.0216092,0.2683257,-0.03057354,0.9729243,-11.9485,-1.220212,-64.43382,1008.934
3.292035103,-0.01533645,0.07296016,-0.0216092,0.2683302,-0.0324958,0.968607,-11.9485,-1.220212,-64.43382,1008.934
3.296964168,-0.07656047,0.01297158,-0.0216092,0.2687696,-0.0266792,0.9658098,-11.9485,-1.220212,-64.43382,1008.934
3.301894188,-0.01533645,0.01297158,-0.0216092,0.2712646,-0.03489952,0.9700056,-11.9485,-1.220212,-64.43382,1008.934
3.306824207,-0.07656047,-0.04701699,-0.0216092,0.2702574,-0.03006567,0.9691086,-11.9485,-1.220212,-64.43382,1008.934
3.311754227,-0.01533645,0.1929373,0.03931354,0.2639609,-0.03204938,0.9714838,-11.9485,-1.220212,-64.43382,1008.934
3.319149494,0.1071116,-0.04701699,-0.2043774,0.2707438,-0.02958438,0.9710222,-11.9485,-1.220212,-64.43382,1008.934
3.324079990,-0.1377845,-0.1669942,-0.0216092,0.2629909,-0.03397381,0.9657366,-11.9485,-1.220212,-64.43382,1008.934
3.329010010,-0.01533645,-0.04701699,-0.0216092,0.2668715,-0.0320245,0.9695697,-11.21392,-0.4654784,-64.39379,1008.935
3.333940029,-0.1377845,-0.1669942,0.03931354,0.2644709,-0.03495428,0.9733583,-11.21392,-0.4654784,-64.39379,1008.935
3.338870048,0.1683356,0.01297158,-0.08253194,0.2658747,-0.02768429,0.9720076,-11.21392,-0.4654784,-64.39379,1008.935
3.343800545,-0.07656047,-0.1070056,-0.0216092,0.2649265,-0.0320345,0.9686187,-11.21392,-0.4654784,-64.39379,1008.935
3.348730564,-0.01533645,0.07296016,0.1002363,0.265896,-0.03202526,0.9676626,-11.21392,-0.4654784,-64.39379,1008.935
3.353660583,-0.07656047,0.01297158,0.1002363,0.265891,-0.0320182,0.9652765,-11.21392,-0.4654784,-64.39379,1008.935
3.358590603,-0.01533645,0.01297158,-0.0216092,0.2702527,-0.02910101,0.9700742,-11.21392,-0.4654784,-64.39379,1008.935
3.363517284,-0.07656047,0.01297158,0.1002363,0.2658695,-0.02863482,0.96627,-11.21392,-0.4654784,-64.39379,1008.935
3.368446827,-0.01533645,-0.1070056,-0.0216092,0.2682978,-0.02670218,0.9724917,-11.21392,-0.4654784,-64.39379,1008.934
3.373376846,-0.01533645,0.01297158,-0.1434547,0.2678347,-0.03152728,0.9671873,-11.21392,-0.4654784,-64.39379,1008.934
3.378306866,-0.01533645,-0.1070056,0.161159,0.2678404,-0.03249335,0.9666991,-11.5539,-1.214713,-63.5629,1008.934
3.383237362,-0.1990085,0.1329487,0.03931354,0.2649292,-0.03299633,0.9666988,-11.5539,-1.214713,-63.5629,1008.934
3.388167381,0.1683356,0.01297158,-0.08253194,0.268314,-0.02959899,0.9705493,-11.5539,-1.214713,-63.5629,1008.934
3.393097401,-0.07656047,0.01297158,-0.2043774,0.2654428,-0.03542738,0.9719192,-11.5539,-1.214713,-63.5629,1008.934
3.398027420,0.1071116,-0.04701699,0.03931354,0.2659145,-0.03396729,0.9700263,-11.5539,-1.214713,-63.5629,1008.934
3.402957916,-0.01533645,0.2529259,0.1002363,0.2668789,-0.03251389,0.971473,-11.5539,-1.214713,-63.5629,1008.934
3.407887936,0.1071116,0.07296016,-0.1434547,0.2726927,-0.03197473,0.9657414,-11.5539,-1.214713,-63.5629,1008.938
3.412817955,0.04588758,-0.2269827,-0.0216092,0.2707371,-0.02861689,0.9710333,-11.5539,-1.214713,-63.5629,1008.938
3.417747974,-0.07656047,0.1929373,-0.0216092,0.2649089,-0.02865677,0.9715211,-11.5539,-1.214713,-63.5629,1008.938
3.422678470,0.1071116,0.01297158,-0.0216092,0.2717288,-0.03151294,0.9709981,-12.31339,-1.597106,-64.35976,1008.938
3.427611828,-0.1377845,0.1329487,-0.0216092,0.2673222,-0.02909764,0.962444,-12.31339,-1.597106,-64.35976,1008.938
3.432538509,-0.01533645,0.01297158,0.1002363,0.2659169,-0.03444963,0.9695436,-12.31339,-1.597106,-64.35976,1008.938
3.437468529,-0.01533645,-0.04701699,0.1002363,0.2683418,-0.03203325,0.9757708,-12.31339,-1.597106,-64.35976,1008.938
3.442399025,0.04588758,-0.1070056,-0.0216092,0.2663652,-0.02864574,0.9710412,-12.31339,-1.597106,-64.35976,1008.938
3.447329044,-0.1377845,-0.04701699,-0.08253194,0.2683201,-0.03104457,0.9686237,-12.31339,-1.597106,-64.35976,1008.938
3.452259064,0.1683356,-0.1669942,-0.0216092,0.2649267,-0.0310769,0.9719703,-12.31339,-1.597106,-64.35976,1008.938
3.457191944,0.04588758,0.1929373,-0.1434547,0.2697756,-0.03246923,0.9628779,-12.31339,-1.597106,-64.35976,1008.938
3.462119579,0.2295596,0.01297158,-0.0216092,0.2702782,-0.03249004,0.9709896,-12.31339,-1.597106,-64.35976,1008.938
3.467049599,-0.01533645,-0.1070056,-0.0216092,0.2693011,-0.03296748,0.9666909,-12.31339,-1.597106,-64.35976,1008.938
3.471979141,0.1071116,0.07296016,0.03931354,0.267853,-0.03203221,0.9743401,-12.30946,-1.219089,-63.98774,1008.938
3.476909160,-0.01533645,-0.04701699,-0.1434547,0.265892,-0.03201961,0.9657537,-12.30946,-1.219089,-63.98774,1008.938
3.481840134,0.04588758,0.07296016,-0.2043774,0.2668729,-0.03250542,0.9686096,-12.30946,-1.219089,-63.98774,1008.938
3.486769676,-0.01533645,-0.04701699,0.161159,0.269249,-0.02618802,0.9643829,-12.30946,-1.219089,-63.98774,1008.938
3.494164944,-0.01533645,0.07296016,-0.0216092,0.2683214,-0.03008838,0.9724526,-12.30946,-1.219089,-63.98774,1008.938
3.499094963,-0.01533645,0.07296016,-0.08253194,0.2688182,-0.03153782,0.9729123,-12.30946,-1.219089,-63.98774,1008.938
3.504024982,0.04588758,-0.2269827,0.1002363,0.2649246,-0.03346878,0.9628754,-12.30946,-1.219089,-63.98774,1008.938
3.508955002,0.1071116,-0.04701699,-0.08253194,0.2683251,-0.03105163,0.9710098,-12.30946,-1.219089,-63.98774,1008.938
3.513885498,-0.01533645,0.07296016,-0.1434547,0.2693265,-0.0349194,0.9723951,-12.30946,-1.219089,-63.98774,1008.938
3.518818378,-0.07656047,0.01297158,-0.0216092,0.266369,-0.02960899,0.9695985,-12.30946,-1.219089,-63.98774,1008.938
3.523745537,-0.1377845,0.01297158,0.03931354,0.2683035,-0.02766826,0.9720032,-12.30946,-1.219089,-63.98774,1008.938
3.528675556,0.1071116,-0.1070056,-0.0216092,0.2644403,-0.0315582,0.9700568,-12.30946,-1.219089,-63.98774,1008.938
3.533609390,0.04588758,-0.04701699,0.161159,0.2712213,-0.02909036,0.9686408,-12.30946,-1.219089,-63.98774,1008.942
3.538536072,-0.01533645,-0.1070056,-0.0216092,0.2678431,-0.03201809,0.969568,-12.30946,-1.219089,-63.98774,1008.942
3.543466091,-0.01533645,0.07296016,-0.0216092,0.2659016,-0.03155423,0.971963,-12.30946,-1.219089,-63.98774,1008.942
3.548396110,-0.07656047,-0.04701699,-0.08253194,0.2624836,-0.03059365,0.966731,-12.30946,-1.219089,-63.98774,1008.942
3.553326607,-0.07656047,0.01297158,0.03931354,0.2619881,-0.02962513,0.9653113,-12.30946,-1.219089,-63.98774,1008.942
3.558256626,0.04588758,0.07296016,0.1002363,0.2688136,-0.03201026,0.9690889,-12.30946,-1.219089,-63.98774,1008.942
3.563182354,-0.1377845,0.07296016,-0.0216092,0.2717242,-0.03198538,0.9671748,-12.30946,-1.219089,-63.98774,1008.942
3.568112373,0.1071116,0.01297158,-0.08253194,0.2668536,-0.03199907,0.9609798,-12.30946,-1.219089,-63.98774,1008.942
3.573042869,-0.01533645,-0.2269827,-0.0216092,0.2688055,-0.03056186,0.9700601,-12.32068,-1.221296,-64.42673,1008.94
3.577972889,0.04588758,-0.04701699,-0.08253194,0.2639522,-0.03107907,0.9705405,-12.32068,-1.221296,-64.42673,1008.94
3.582902908,-0.1377845,0.07296016,-0.08253194,0.2673435,-0.02960682,0.9710283,-12.32068,-1.221296,-64.42673,1008.94
3.587832928,0.04588758,0.01297158,-0.08253194,0.2678265,-0.02864177,0.9729475,-12.32068,-1.221296,-64.42673,1008.94
3.592763424,-0.07656047,0.01297158,0.1002363,0.2654066,-0.03250232,0.9643174,-12.32068,-1.221296,-64.42673,1008.94
3.597693443,-0.01533645,0.07296016,-0.0216092,0.2673587,-0.03250221,0.9686087,-12.32068,-1.221296,-64.42673,1008.94
3.602623463,-0.01533645,0.01297158,-0.0216092,0.2687989,-0.03103148,0.9652824,-12.32068,-1.221296,-64.42673,1008.94
3.607553482,0.04588758,0.07296016,0.1002363,0.2668581,-0.03008953,0.969592,-12.32068,-1.221296,-64.42673,1008.94
3.612483978,0.04588758,0.07296016,0.03931354,0.266364,-0.02960193,0.9672123,-12.32068,-1.221296,-64.42673,1008.94
3.617413998,-0.1990085,-0.1070056,-0.0216092,0.2649332,-0.03300199,0.9686075,-12.32068,-1.221296,-64.42673,1008.94
3.622344494,0.2295596,0.01297158,0.1002363,0.2673107,-0.0271655,0.9634207,-12.30946,-1.219089,-63.98774,1008.94
3.627274036,-0.01533645,-0.1070056,-0.2043774,0.2678337,-0.03152587,0.9667102,-12.30946,-1.219089,-63.98774,1008.94
3.632204533,-0.07656047,-0.04701699,-0.0216092,0.2659273,-0.03638036,0.9680896,-12.30946,-1.219089,-63.98774,1008.94
3.637134552,-0.07656047,0.07296016,0.03931354,0.2658679,-0.0291115,0.9638783,-12.30946,-1.219089,-63.98774,1008.94
3.642064571,-0.01533645,-0.04701699,0.1002363,0.2649423,-0.0344518,0.9681137,-12.30946,-1.219089,-63.98774,1008.94
3.646995068,0.04588758,0.07296016,0.1002363,0.2702932,-0.03634303,0.9652184,-12.30946,-1.219089,-63.98774,1008.94
3.651925087,-0.01533645,-0.1070056,-0.0216092,0.2678427,-0.03153858,0.9710051,-12.30946,-1.219089,-63.98774,1008.94
3.656854629,-0.01533645,0.01297158,0.1002363,0.2653807,-0.02863379,0.9648392,-12.30946,-1.219089,-63.98774,1008.94
3.661784649,0.04588758,0.1929373,0.03931354,0.268325,-0.02961453,0.9757987,-12.30946,-1.219089,-63.98774,1008.94
3.669179916,0.04588758,-0.04701699,0.03931354,0.2687928,-0.0295859,0.9672079,-11.19847,-1.594169,-64.4437,1008.94
3.674109936,-0.07656047,-0.04701699,0.161159,0.2673201,-0.02765772,0.9662785,-11.19847,-1.594169,-64.4437,1008.94
3.679040432,0.04588758,-0.04701699,-0.0216092,0.2688182,-0.03153782,0.9729123,-11.19847,-1.594169,-64.4437,1008.94
3.683970451,-0.07656047,0.01297158,0.03931354,0.2634706,-0.03252503,0.9676614,-11.19847,-1.594169,-64.4437,1008.94
3.688900471,0.1071116,0.07296016,0.03931354,0.2668822,-0.03299764,0.9714674,-11.19847,-1.594169,-64.4437,1008.94
3.693830490,-0.01533645,-0.2269827,-0.1434547,0.2649376,-0.03348714,0.9690792,-11.19847,-1.594169,-64.4437,1008.94
3.698760986,0.1071116,0.07296016,0.03931354,0.2644367,-0.03203205,0.9667108,-11.19847,-1.594169,-64.4437,1008.94
3.703691006,-0.01533645,-0.04701699,-0.0216092,0.2683108,-0.03055235,0.965766,-11.19847,-1.594169,-64.4437,1008.94
3.708621025,0.04588758,0.01297158,0.03931354,0.2663996,-0.03444218,0.968111,-11.19847,-1.594169,-64.4437,1008.94
3.713551044,-0.07656047,0.01297158,-0.0216092,0.2653829,-0.02767901,0.9691453,-11.19847,-1.594169,-64.4437,1008.94
3.718481541,-0.01533645,0.01297158,-0.08253194,0.2634351,-0.02912188,0.9619738,-11.94297,-0.8418798,-63.99908,1008.94
3.723411560,0.1071116,-0.04701699,0.03931354,0.2697992,-0.03346073,0.9709793,-11.94297,-0.8418798,-63.99908,1008.94
3.728346348,-0.01533645,-0.04701699,0.1002363,0.2687843,-0.02765799,0.9696164,-11.94297,-0.8418798,-63.99908,1008.94
3.733271599,-0.1377845,-0.04701699,0.03931354,0.2721882,-0.0295564,0.9648158,-11.94297,-0.8418798,-63.99908,1008.939
3.738202095,0.04588758,0.01297158,-0.1434547,0.2717534,-0.03490055,0.9714363,-11.94297,-0.8418798,-63.99908,1008.939
3.743136883,0.04588758,0.07296016,-0.0216092,0.2634514,-0.02962399,0.9681721,-11.94297,-0.8418798,-63.99908,1008.939
3.748062134,0.04588758,-0.04701699,-0.08253194,0.270275,-0.0334434,0.9662063,-11.94297,-0.8418798,-63.99908,1008.939
3.752992153,0.04588758,0.1929373,-0.0216092,0.2668715,-0.0320245,0.9695697,-11.94297,-0.8418798,-63.99908,1008.939
3.757922649,0.04588758,-0.04701699,0.1002363,0.270773,-0.03249955,0.9752836,-11.94297,-0.8418798,-63.99908,1008.939
3.762848377,-0.1377845,-0.04701699,0.03931354,0.2697399,-0.02762897,0.9619792,-11.94297,-0.8418798,-63.99908,1008.939
3.767778397,0.04588758,0.07296016,-0.0216092,0.2683221,-0.0310474,0.9695782,-11.20415,-1.218043,-64.44797,1008.939
3.772708416,0.04588758,-0.1070056,0.03931354,0.2698001,-0.03585685,0.963316,-11.20415,-1.218043,-64.44797,1008.944
3.777638912,-0.01533645,0.07296016,0.03931354,0.2692776,-0.02958128,0.9667299,-11.20415,-1.218043,-64.44797,1008.944
3.782568932,0.1683356,-0.04701699,-0.0216092,0.2712424,-0.03199423,0.9690846,-11.20415,-1.218043,-64.44797,1008.944
3.787498951,-0.01533645,0.01297158,0.03931354,0.2629637,-0.02722966,0.975359,-11.20415,-1.218043,-64.44797,1008.944
3.792429447,0.04588758,-0.04701699,0.03931354,0.2658705,-0.02863623,0.9667472,-11.20415,-1.218043,-64.44797,1008.944
3.797359467,0.04588758,-0.1070056,-0.0216092,0.2678298,-0.02912552,0.9729419,-11.20415,-1.218043,-64.44797,1008.944
3.802289486,-0.1377845,0.07296016,0.03931354,0.2712316,-0.029584,0.9719757,-11.20415,-1.218043,-64.44797,1008.944
3.807219505,-0.01533645,0.07296016,-0.0216092,0.2658725,-0.02863906,0.9677016,-11.20415,-1.218043,-64.44797,1008.944
3.812149525,0.1683356,-0.1070056,0.03931354,0.2693253,-0.03587559,0.9685662,-11.20415,-1.218043,-64.44797,1008.944
3.817080021,0.04588758,0.1329487,0.03931354,0.263948,-0.03203102,0.9652799,-11.57064,-1.595253,-64.43662,1008.944
3.822010040,-0.01533645,-0.1070056,0.1002363,0.2702705,-0.03152114,0.9705235,-11.57064,-1.595253,-64.43662,1008.944
3.826940060,-0.1377845,0.01297158,0.03931354,0.2683087,-0.02911242,0.9696006,-11.57064,-1.595253,-64.43662,1008.944
3.831869602,0.04588758,0.01297158,-0.0216092,0.2673439,-0.03008632,0.9695911,-11.57064,-1.595253,-64.43662,1008.944
3.836800575,0.04588758,-0.1669942,0.03931354,0.2648883,-0.02527481,0.9729918,-11.57064,-1.595253,-64.43662,1008.944
3.841730595,0.04588758,0.1329487,0.03931354,0.269763,-0.02909857,0.9681663,-11.57064,-1.595253,-64.43662,1008.944
3.849125862,-0.01533645,-0.04701699,-0.0216092,0.2639684,-0.03397588,0.9685981,-11.57064,-1.595253,-64.43662,1008.944
3.854055405,-0.01533645,0.07296016,0.03931354,0.2692762,-0.02910036,0.9676899,-11.57064,-1.595253,-64.43662,1008.943
3.858985424,0.1071116,0.01297158,-0.0216092,0.2654077,-0.03250374,0.9647946,-11.57064,-1.595253,-64.43662,1008.943
3.863919735,-0.01533645,-0.04701699,-0.0216092,0.2683194,-0.03008556,0.9714983,-11.93713,-1.972462,-64.42528,1008.943
3.868845940,-0.01533645,0.1329487,0.03931354,0.2668568,-0.03104571,0.965763,-11.93713,-1.972462,-64.42528,1008.943
3.873775959,0.1071116,-0.04701699,0.161159,0.2668698,-0.03106408,0.9719668,-11.93713,-1.972462,-64.42528,1008.943
3.878705978,-0.01533645,-0.1669942,-0.0216092,0.2639573,-0.03252324,0.9681377,-11.93713,-1.972462,-64.42528,1008.943
3.883636475,-0.1377845,0.01297158,0.161159,0.2722207,-0.03295531,0.9690716,-11.93713,-1.972462,-64.42528,1008.943
3.888566494,-0.07656047,-0.04701699,-0.1434547,0.2634618,-0.03155472,0.9667181,-11.93713,-1.972462,-64.42528,1008.943
3.893496513,0.04588758,-0.1070056,0.03931354,0.270276,-0.03344481,0.9666836,-11.93713,-1.972462,-64.42528,1008.943
3.898426533,-0.01533645,-0.1070056,0.03931354,0.2663763,-0.03009838,0.9715017,-11.93713,-1.972462,-64.42528,1008.941
3.903357029,-0.07656047,0.1329487,-0.0216092,0.2659002,-0.03107331,0.9729231,-11.93713,-1.972462,-64.42528,1008.941
3.908291817,-0.01533645,0.07296016,0.1002363,0.2615162,-0.03204281,0.9638527,-11.93713,-1.972462,-64.42528,1008.941
3.913217068,-0.1377845,-0.04701699,-0.0216092,0.2741356,-0.03002873,0.9652839,-11.94297,-0.8418798,-63.99908,1008.941
3.918147087,-0.01533645,-0.1070056,-0.08253194,0.2658905,-0.03010159,0.9715026,-11.94297,-0.8418798,-63.99908,1008.941
3.923077583,0.04588758,0.1329487,0.161159,0.271221,-0.03004796,0.9652891,-11.94297,-0.8418798,-63.99908,1008.941
3.928007603,0.1071116,-0.1070056,-0.08253194,0.2673391,-0.02912166,0.9705566,-11.94297,-0.8418798,-63.99908,1008.941
3.932937622,-0.01533645,0.01297158,0.1002363,0.266378,-0.03105881,0.9691045,-11.94297,-0.8418798,-63.99908,1008.941
3.937867641,0.1071116,0.01297158,-0.0216092,0.2663819,-0.03345916,0.9628728,-11.94297,-0.8418798,-63.99908,1008.943
3.942798138,0.04588758,0.1329487,-0.08253194,0.2707537,-0.0319932,0.9676538,-11.94297,-0.8418798,-63.99908,1008.943
3.947728157,0.1071116,0.07296016,-0.0216092,0.2693025,-0.0334484,0.9657308,-11.94297,-0.8418798,-63.99908,1008.943
3.952658176,-0.07656047,-0.04701699,-0.08253194,0.2707463,-0.03150381,0.9657505,-11.94297,-0.8418798,-63.99908,1008.943
3.957587719,-0.07656047,0.1329487,0.161159,0.2683001,-0.02957921,0.9638683,-11.94297,-0.8418798,-63.99908,1008.943
3.962514400,-0.01533645,0.01297158,0.03931354,0.2664011,-0.0325284,0.9752914,-11.19278,-1.970294,-64.43943,1008.943
3.967444420,0.1071116,0.07296016,0.1002363,0.2663711,-0.03104892,0.9657639,-11.19278,-1.970294,-64.43943,1008.943
3.972374439,-0.1990085,0.07296016,0.2220818,0.2683141,-0.0310361,0.9657604,-11.19278,-1.970294,-64.43943,1008.943
3.977304935,-0.01533645,-0.1669942,-0.08253194,0.2663541,-0.0271931,0.9705807,-11.19278,-1.970294,-64.43943,1008.942
3.982234955,0.04588758,0.1329487,0.161159,0.2648946,-0.02815749,0.9662773,-11.19278,-1.970294,-64.43943,1008.942
3.987164974,0.1071116,0.01297158,0.03931354,0.2692944,-0.03199999,0.966702,-11.19278,-1.970294,-64.43943,1008.942
3.992094994,-0.07656047,0.1329487,-0.0216092,0.2654139,-0.03155461,0.9710095,-11.19278,-1.970294,-64.43943,1008.942
3.997025490,-0.01533645,0.07296016,0.1002363,0.2687861,-0.02861841,0.9672191,-11.19278,-1.970294,-64.43943,1008.942
4.001955509,0.1071116,0.01297158,-0.0216092,0.2673141,-0.02764924,0.9634152,-11.19278,-1.970294,-64.43943,1008.942
4.006885529,-0.01533645,0.1929373,-0.08253194,0.2683229,-0.03200641,0.9667038,-11.19278,-1.970294,-64.43943,1008.942
4.011815548,-0.01533645,-0.04701699,-0.0216092,0.2649507,-0.0349426,0.9704941,-12.30946,-1.219089,-63.98774,1008.942
4.016745567,0.1071116,-0.04701699,0.03931354,0.2712301,-0.03149778,0.9647952,-12.30946,-1.219089,-63.98774,1008.94
4.024140835,-0.01533645,0.1329487,-0.0216092,0.2702691,-0.03104022,0.9714836,-12.30946,-1.219089,-63.98774,1008.94
4.029071331,0.04588758,-0.04701699,-0.08253194,0.2629525,-0.02817172,0.966758,-12.30946,-1.219089,-63.98774,1008.94
4.034001350,-0.01533645,0.1329487,-0.0216092,0.2697741,-0.03055121,0.9686267,-12.30946,-1.219089,-63.98774,1008.94
4.038931370,-0.01533645,0.1329487,0.03931354,0.2673603,-0.03202553,0.9710004,-12.30946,-1.219089,-63.98774,1008.94
4.043860912,-0.01533645,-0.04701699,0.161159,0.2668354,-0.02909944,0.9619677,-12.30946,-1.219089,-63.98774,1008.94
4.048791885,0.1071116,0.01297158,0.1002363,0.2697815,-0.03247771,0.9657411,-12.30946,-1.219089,-63.98774,1008.94
4.053721428,-0.1990085,0.01297158,-0.08253194,0.2688134,-0.03296786,0.9657372,-12.30946,-1.219089,-63.98774,1008.94
4.058651447,-0.1377845,-0.04701699,0.1002363,0.2668327,-0.0281376,0.9638877,-11.56511,-1.21692,-64.00189,1008.938
4.063581467,-0.1377845,0.01297158,0.161159,0.2658599,-0.0291002,0.9600605,-11.56511,-1.21692,-64.00189,1008.938
4.068511963,0.04588758,-0.04701699,0.1002363,0.2683399,-0.03346752,0.9700275,-11.56511,-1.21692,-64.00189,1008.938
4.073441982,-0.07656047,0.01297158,-0.08253194,0.2697838,-0.03152293,0.9700472,-11.56511,-1.21692,-64.00189,1008.938
4.078372002,-0.01533645,-0.1070056,-0.08253194,0.2683288,-0.03201488,0.9695671,-11.56511,-1.21692,-64.00189,1008.938
4.083302021,-0.01533645,-0.04701699,0.03931354,0.2654167,-0.03395355,0.9643006,-11.56511,-1.21692,-64.00189,1008.938
4.184369564,0.1071116,0.07296016,0.03931354,0.2683324,-0.03154103,0.9729131,-11.92592,-1.970255,-63.98628,1008.939
4.186830998,0.1071116,-0.1669942,0.161159,0.2678463,-0.03106473,0.9743512,-11.92592,-1.970255,-63.98628,1008.939
4.191761017,-0.07656047,0.2529259,-0.0216092,0.267855,-0.03203504,0.9752944,-11.92592,-1.970255,-63.98628,1008.939
4.196691036,-0.07656047,-0.04701699,0.03931354,0.2678544,-0.03251313,0.9733801,-11.92592,-1.970255,-63.98628,1008.939
4.204086304,0.1071116,0.01297158,-0.08253194,0.2649412,-0.03301328,0.9724253,-11.92592,-1.970255,-63.98628,1008.939
4.209020615,-0.07656047,0.01297158,0.1002363,0.2663838,-0.03202488,0.9686161,-11.95418,-0.8440866,-64.43808,1008.939
4.213946819,-0.01533645,0.01297158,0.161159,0.2654116,-0.03250938,0.9667035,-11.95418,-0.8440866,-64.43808,1008.939
4.218876839,-0.01533645,0.01297158,0.1002363,0.2673676,-0.03251492,0.9729037,-11.95418,-0.8440866,-64.43808,1008.942
4.223806858,-0.01533645,-0.1669942,0.03931354,0.2644447,-0.03204335,0.9705284,-11.95418,-0.8440866,-64.43808,1008.942
4.228736400,0.2295596,0.1329487,-0.0216092,0.2658609,-0.02910161,0.9605377,-11.95418,-0.8440866,-64.43808,1008.942
4.233667373,-0.07656047,-0.04701699,0.1002363,0.2654408,-0.03542455,0.9709648,-11.95418,-0.8440866,-64.43808,1008.942
4.238597393,-0.07656047,-0.04701699,-0.0216092,0.2683093,-0.02863433,0.9715149,-11.95418,-0.8440866,-64.43808,1008.942
4.243526935,0.04588758,0.01297158,0.1002363,0.2707141,-0.02714729,0.9648463,-11.95418,-0.8440866,-64.43808,1008.942
4.248456955,-0.01533645,0.07296016,-0.2043774,0.2673694,-0.03347535,0.9705064,-11.95418,-0.8440866,-64.43808,1008.942
4.253387928,0.1683356,0.07296016,0.03931354,0.2673426,-0.03104251,0.9657622,-11.93729,-1.218005,-63.99482,1008.942
4.258317470,0.04588758,0.2529259,-0.2043774,0.2644082,-0.02863879,0.9643638,-11.93729,-1.218005,-63.99482,1008.942
4.263247490,0.1683356,0.1329487,-0.0216092,0.2653964,-0.02961399,0.9691229,-11.93729,-1.218005,-63.99482,1008.94
4.268180847,-0.07656047,-0.1070056,-0.0216092,0.2668533,-0.02912487,0.9705575,-11.93729,-1.218005,-63.99482,1008.94
4.273108005,-0.01533645,-0.04701699,-0.08253194,0.2654182,-0.03203977,0.9714811,-11.93729,-1.218005,-63.99482,1008.94
4.278038025,-0.01533645,0.07296016,-0.08253194,0.2654328,-0.03541325,0.9671471,-11.93729,-1.218005,-63.99482,1008.94
4.282968044,0.04588758,0.07296016,-0.08253194,0.2668721,-0.03154641,0.9714841,-11.93729,-1.218005,-63.99482,1008.94
4.287898063,0.1071116,0.1929373,0.03931354,0.2620373,-0.03400565,0.9743283,-11.93729,-1.218005,-63.99482,1008.94
4.292828560,-0.01533645,-0.2269827,-0.0216092,0.2678351,-0.03200679,0.9657502,-11.93729,-1.218005,-63.99482,1008.94
4.297758579,0.2907836,0.07296016,0.03931354,0.2634728,-0.03157026,0.9719674,-11.93729,-1.218005,-63.99482,1008.94
4.302688598,-0.07656047,-0.1669942,0.03931354,0.2717074,-0.02956666,0.9672027,-11.92767,-1.216113,-63.61854,1008.942
4.307618618,-0.01533645,0.1929373,-0.08253194,0.2673452,-0.03056724,0.968631,-11.92767,-1.216113,-63.61854,1008.942
4.312549114,0.1071116,0.07296016,0.03931354,0.2615149,-0.02916719,0.9729533,-11.92767,-1.216113,-63.61854,1008.942
4.317479133,-0.01533645,0.01297158,-0.1434547,0.2692944,-0.03199999,0.966702,-11.92767,-1.216113,-63.61854,1008.942
4.322409153,0.1071116,0.07296016,-0.0216092,0.2697729,-0.02911269,0.9729384,-11.92767,-1.216113,-63.61854,1008.942
4.327339172,0.04588758,0.01297158,-0.08253194,0.2668685,-0.03202026,0.968138,-11.92767,-1.216113,-63.61854,1008.942
4.332269668,0.1683356,0.1329487,0.1002363,0.2697935,-0.03249466,0.9714677,-11.92767,-1.216113,-63.61854,1008.942
4.337199688,-0.01533645,0.1329487,-0.0216092,0.2697988,-0.03298122,0.9724165,-11.92767,-1.216113,-63.61854,1008.942
4.342129707,0.1071116,0.01297158,0.03931354,0.2659091,-0.03348073,0.9690775,-11.92767,-1.216113,-63.61854,1008.942
4.347059250,0.04588758,0.1929373,-0.08253194,0.2644397,-0.03203629,0.9681424,-11.92767,-1.216113,-63.61854,1008.942
4.351990223,0.2907836,0.01297158,0.03931354,0.2712585,-0.03345394,0.971931,-11.58594,-1.221019,-64.81716,1008.942
4.356920242,-0.01533645,0.1329487,0.2220818,0.2707509,-0.03103137,0.9695739,-11.58594,-1.221019,-64.81716,1008.942
4.361849785,0.1071116,0.07296016,-0.08253194,0.2702799,-0.03201336,0.9733813,-11.58594,-1.221019,-64.81716,1008.942
4.366779804,-0.01533645,0.07296016,-0.08253194,0.2702645,-0.03151267,0.9676602,-11.58594,-1.221019,-64.81716,1008.942
4.374175072,0.1071116,0.1329487,-0.0216092,0.2736418,-0.02858353,0.966256,-11.58594,-1.221019,-64.81716,1008.942
4.379106045,0.1071116,0.1329487,-0.1434547,0.2673452,-0.03056724,0.968631,-11.58594,-1.221019,-64.81716,1008.942
4.384035587,0.1071116,0.3129145,0.03931354,0.2663655,-0.02768814,0.9743929,-11.58594,-1.221019,-64.81716,1008.941
4.388964176,-0.07656047,0.01297158,-0.08253194,0.2649053,-0.02913063,0.9681751,-11.58594,-1.221019,-64.81716,1008.941
4.393891811,0.1071116,0.07296016,0.1002363,0.2692974,-0.03200423,0.9681337,-11.58594,-1.221019,-64.81716,1008.941
4.398822307,0.1071116,0.1329487,0.03931354,0.2673482,-0.03057148,0.9700627,-11.58594,-1.221019,-64.81716,1008.941
4.403752327,-0.01533645,0.07296016,0.03931354,0.267825,-0.03055556,0.9657669,-12.30946,-1.219089,-63.98774,1008.941
4.408682346,0.04588758,0.01297158,0.03931354,0.2658664,-0.02719348,0.9696272,-12.30946,-1.219089,-63.98774,1008.941
4.413612366,0.1071116,0.1329487,0.161159,0.2678383,-0.03105343,0.9705334,-12.30946,-1.219089,-63.98774,1008.941
4.418542862,-0.01533645,0.1929373,0.03931354,0.2706864,-0.02231834,0.9677653,-12.30946,-1.219089,-63.98774,1008.941
4.423472881,0.1071116,0.07296016,0.1002363,0.2692849,-0.03007067,0.9686331,-12.30946,-1.219089,-63.98774,1008.941
4.428402901,0.04588758,0.1329487,-0.0216092,0.2678175,-0.02862906,0.9686525,-12.30946,-1.219089,-63.98774,1008.941
4.433332443,-0.01533645,0.01297158,-0.0216092,0.2673597,-0.03250362,0.969086,-12.30946,-1.219089,-63.98774,1008.941
4.438263416,0.1683356,0.1329487,-0.08253194,0.2649247,-0.03107408,0.9710159,-12.30946,-1.219089,-63.98774,1008.941
4.443192959,0.1683356,0.1929373,-0.0216092,0.2668819,-0.03251813,0.9729046,-12.30946,-1.219089,-63.98774,1008.941
4.448122978,0.1071116,0.01297158,-0.08253194,0.2673541,-0.03297465,0.9647855,-12.30946,-1.219089,-63.98774,1008.941
4.453052997,0.04588758,0.2529259,0.1002363,0.2664065,-0.03684677,0.963311,-11.93713,-1.972462,-64.42528,1008.941
4.457983494,0.1683356,0.4328916,0.03931354,0.2673399,-0.03008067,0.9676822,-11.93713,-1.972462,-64.42528,1008.941
4.462913513,0.1071116,0.01297158,-0.0216092,0.2678452,-0.03345802,0.9657334,-11.93713,-1.972462,-64.42528,1008.941
4.467843532,0.1683356,-0.04701699,0.2220818,0.269295,-0.0315219,0.9686164,-11.93713,-1.972462,-64.42528,1008.941
4.472773552,0.1683356,0.1929373,-0.08253194,0.2644382,-0.03011827,0.9738913,-11.93713,-1.972462,-64.42528,1008.941
4.477704048,0.1071116,-0.2269827,-0.0216092,0.272235,-0.03345459,0.9743155,-11.93713,-1.972462,-64.42528,1008.941
4.482634067,0.2295596,0.1929373,0.03931354,0.2761109,-0.03437242,0.9661846,-11.93713,-1.972462,-64.42528,1008.941
4.487564087,0.04588758,0.2529259,-0.1434547,0.2620228,-0.03206927,0.9738733,-11.93713,-1.972462,-64.42528,1008.941
4.492494106,0.2295596,0.1329487,-0.0216092,0.2716829,-0.02378435,0.9749051,-11.93713,-1.972462,-64.42528,1008.941
4.497424602,0.1071116,0.2529259,0.161159,0.2649546,-0.03734296,0.9642625,-11.93713,-1.972462,-64.42528,1008.941
4.502354622,0.1683356,0.3129145,-0.1434547,0.2687973,-0.02767635,0.9758201,-11.94282,-1.596337,-64.42955,1008.943
4.507284641,-0.01533645,-0.04701699,0.1002363,0.2620099,-0.03205091,0.9676695,-11.94282,-1.596337,-64.42955,1008.943
4.512214661,0.04588758,0.07296016,-0.2653002,0.2789515,-0.02371084,0.9663021,-11.94282,-1.596337,-64.42955,1008.943
4.517145157,0.2295596,0.2529259,0.1002363,0.2697721,-0.03054838,0.9676723,-11.94282,-1.596337,-64.42955,1008.943
4.522076607,0.04588758,0.01297158,0.03931354,0.2668783,-0.03299199,0.9695585,-11.94282,-1.596337,-64.42955,1008.943
4.527005196,0.1071116,0.01297158,0.03931354,0.2678428,-0.03297568,0.9662163,-11.94282,-1.596337,-64.42955,1008.943
4.531935215,0.1683356,0.07296016,-0.0216092,0.2697336,-0.02714099,0.9605531,-11.94282,-1.596337,-64.42955,1008.943
4.536865711,0.1071116,0.1329487,-0.0216092,0.2595873,-0.03111781,0.9738889,-11.94282,-1.596337,-64.42955,1008.943
4.541795730,-0.01533645,0.1329487,-0.0216092,0.2692576,-0.02572122,0.970115,-11.94282,-1.596337,-64.42955,1008.943
4.546725750,0.04588758,0.01297158,0.161159,0.2692977,-0.03248374,0.9666964,-12.30946,-1.219089,-63.98774,1008.941
4.554121017,0.04588758,0.01297158,0.03931354,0.2644356,-0.03059354,0.9710224,-12.30946,-1.219089,-63.98774,1008.941
4.559050560,0.1071116,0.07296016,-0.0216092,0.2716992,-0.03051296,0.9600333,-12.30946,-1.219089,-63.98774,1008.941
4.563981533,0.1683356,-0.04701699,-0.1434547,0.2620141,-0.03109896,0.9729301,-12.30946,-1.219089,-63.98774,1008.941
4.568911075,0.2295596,0.1329487,-0.08253194,0.2683122,-0.03103327,0.964806,-12.30946,-1.219089,-63.98774,1008.941
4.573841095,0.04588758,0.01297158,-0.1434547,0.2644016,-0.0252766,0.9725154,-12.30946,-1.219089,-63.98774,1008.941
4.578771114,0.3520077,0.1929373,0.03931354,0.263995,-0.03736632,0.9699908,-12.30946,-1.219089,-63.98774,1008.941
4.583701610,-0.07656047,0.1329487,-0.0216092,0.2663364,-0.02621008,0.9653425,-12.30946,-1.219089,-63.98774,1008.94
4.588627815,0.2295596,-0.04701699,0.1002363,0.2644156,-0.02912818,0.966267,-12.30946,-1.219089,-63.98774,1008.94
4.593557835,0.2295596,0.01297158,0.1002363,0.267843,-0.03441279,0.9614273,-12.30946,-1.219089,-63.98774,1008.94
4.598488331,-0.01533645,0.07296016,-0.08253194,0.2702319,-0.02667665,0.9681933,-11.9316,-1.59413,-63.99055,1008.94
4.603418350,-0.01533645,0.07296016,0.161159,0.2677953,-0.02572378,0.9677315,-11.9316,-1.59413,-63.99055,1008.94
4.608348370,0.1071116,0.07296016,-0.1434547,0.2692715,-0.0281357,0.9686554,-11.9316,-1.59413,-63.99055,1008.94
4.613278389,0.1071116,-0.1669942,-0.0216092,0.2644249,-0.0296204,0.9691247,-11.9316,-1.59413,-63.99055,1008.94
4.618207931,0.1071116,0.1929373,0.03931354,0.2659187,-0.03301535,0.9752867,-11.9316,-1.59413,-63.99055,1008.94
4.623138904,0.2295596,0.07296016,0.1002363,0.2659105,-0.03396164,0.9681175,-11.9316,-1.59413,-63.99055,1008.938
4.628068924,0.1683356,0.01297158,-0.1434547,0.2693011,-0.03296748,0.9666909,-11.9316,-1.59413,-63.99055,1008.938
4.632998466,-0.1990085,0.01297158,-0.0216092,0.2678122,-0.02814249,0.9677037,-11.9316,-1.59413,-63.99055,1008.938
4.637928486,0.1683356,-0.04701699,0.161159,0.2644273,-0.03010273,0.9686419,-11.9316,-1.59413,-63.99055,1008.938
4.642859459,0.1683356,0.1329487,-0.0216092,0.2639346,-0.03009605,0.9653023,-11.9316,-1.59413,-63.99055,1008.938
4.647789001,-0.01533645,0.1329487,0.03931354,0.273641,-0.02762452,0.9691304,-11.92767,-1.216113,-63.61854,1008.938
4.652719021,0.04588758,0.1929373,-0.0216092,0.2693007,-0.03248797,0.9681281,-11.92767,-1.216113,-63.61854,1008.938
4.657649040,0.1683356,0.1329487,-0.0216092,0.2688176,-0.03201591,0.9709978,-11.92767,-1.216113,-63.61854,1008.938
4.662579536,0.2295596,0.01297158,-0.0216092,0.265395,-0.02913307,0.970083,-11.92767,-1.216113,-63.61854,1008.938
4.667509556,0.2295596,0.07296016,-0.1434547,0.2673495,-0.02961529,0.9738916,-11.92767,-1.216113,-63.61854,1008.936
4.672439575,0.1683356,0.01297158,0.1002363,0.2687881,-0.02862124,0.9681736,-11.92767,-1.216113,-63.61854,1008.936
4.677369594,0.1071116,0.07296016,0.1002363,0.2692825,-0.02958834,0.969116,-11.92767,-1.216113,-63.61854,1008.936
4.682300091,0.1071116,0.01297158,-0.08253194,0.2629619,-0.02866394,0.9696158,-11.92767,-1.216113,-63.61854,1008.936
4.687230110,0.04588758,0.07296016,0.03931354,0.2697726,-0.02863319,0.9743756,-11.92767,-1.216113,-63.61854,1008.936
4.692160129,0.1683356,0.1329487,0.03931354,0.2634722,-0.03204835,0.970053,-11.92767,-1.216113,-63.61854,1008.936
4.697090149,0.2295596,0.1929373,-0.0216092,0.2610039,-0.02626088,0.9706015,-11.94282,-1.596337,-64.42955,1008.936
4.702020645,-0.01533645,0.01297158,0.1002363,0.2692663,-0.02669153,0.9710582,-11.94282,-1.596337,-64.42955,1008.936
4.706950664,-0.01533645,0.1329487,-0.08253194,0.2727043,-0.03151217,0.9729053,-11.94282,-1.596337,-64.42955,1008.94
4.711881161,-0.07656047,0.1329487,-0.0216092,0.262508,-0.03254415,0.971958,-11.94282,-1.596337,-64.42955,1008.94
4.716810703,0.1071116,0.01297158,-0.08253194,0.2673403,-0.03056017,0.966245,-11.94282,-1.596337,-64.42955,1008.94
4.721741199,0.1071116,0.1329487,0.03931354,0.2673344,-0.028157,0.9715223,-11.94282,-1.596337,-64.42955,1008.94
4.729136467,-0.01533645,0.07296016,-0.0216092,0.260059,-0.02965773,0.9719958,-11.94282,-1.596337,-64.42955,1008.94
4.734066486,0.1071116,0.1329487,0.1002363,0.2634528,-0.0301049,0.967212,-11.94282,-1.596337,-64.42955,1008.94
4.738996506,-0.07656047,0.1329487,-0.0216092,0.2634813,-0.03349817,0.9695591,-11.94282,-1.596337,-64.42955,1008.94
4.743930340,0.04588758,0.07296016,-0.0216092,0.2668393,-0.02766799,0.9686654,-11.93729,-1.218005,-63.99482,1008.94
4.748857021,0.04588758,0.07296016,-0.1434547,0.2639491,-0.02963773,0.9738977,-11.93729,-1.218005,-63.99482,1008.939
4.753787041,0.1071116,0.07296016,0.03931354,0.2707285,-0.02908368,0.9653012,-11.93729,-1.218005,-63.99482,1008.939
4.758722305,0.1071116,0.01297158,-0.08253194,0.2687728,-0.02812054,0.9624525,-11.93729,-1.218005,-63.99482,1008.939
4.763646603,-0.07656047,0.07296016,-0.0216092,0.2702841,-0.03489321,0.9657123,-11.93729,-1.218005,-63.99482,1008.939
4.768577576,0.1071116,0.07296016,-0.0216092,0.2707668,-0.03344867,0.9690687,-11.93729,-1.218005,-63.99482,1008.939
4.773507118,0.04588758,0.07296016,0.03931354,0.2692943,-0.03056289,0.9714909,-11.93729,-1.218005,-63.99482,1008.939
4.778437138,0.04588758,0.1329487,0.03931354,0.2624858,-0.02963887,0.971037,-11.93729,-1.218005,-63.99482,1008.939
4.783367157,0.1071116,0.01297158,-0.0216092,0.2659057,-0.03299699,0.969083,-11.93729,-1.218005,-63.99482,1008.939
4.788293838,0.1071116,-0.04701699,0.03931354,0.2673351,-0.02911601,0.9686478,-11.93729,-1.218005,-63.99482,1008.937
4.793223858,-0.01533645,0.1329487,-0.0216092,0.2688049,-0.03103995,0.9681457,-11.18332,-1.213944,-63.63269,1008.937
4.798153877,0.04588758,0.07296016,-0.08253194,0.2616336,-0.04849431,0.9650947,-11.18332,-1.213944,-63.63269,1008.937
4.803083897,0.04588758,0.07296016,-0.6917593,0.260727,-0.05386145,0.9783971,-11.18332,-1.213944,-63.63269,1008.937
4.808014393,0.04588758,0.1929373,-1.300987,0.2664034,-0.03540543,0.9666682,-11.18332,-1.213944,-63.63269,1008.937
4.812944412,-0.07656047,0.07296016,-1.240064,0.2706142,-0.01024171,0.9736314,-11.18332,-1.213944,-63.63269,1008.937
4.817874432,-0.07656047,-0.04701699,-0.752682,0.274925,-0.003420683,0.9670206,-11.18332,-1.213944,-63.63269,1008.937
4.822803974,0.04588758,0.01297158,-0.0216092,0.2729765,-0.005341639,0.9579347,-11.18332,-1.213944,-63.63269,1008.937
4.827734947,0.04588758,0.2529259,0.3439272,0.2716818,-0.02857234,0.9581468,-11.18332,-1.213944,-63.63269,1008.935
4.832664967,-0.07656047,0.4328916,0.2830045,0.2635897,-0.04993696,0.9665061,-11.18332,-1.213944,-63.63269,1008.935
4.837594509,-0.01533645,0.3129145,-0.3871456,0.2591918,-0.04466017,0.9718246,-11.18332,-1.213944,-63.63269,1008.935
4.842524528,0.04588758,-0.04701699,-0.6917593,0.2673587,-0.03250221,0.9686087,-11.54981,-1.591154,-63.62135,1008.935
4.847455025,-0.01533645,0.01297158,-0.4480684,0.2629233,-0.02142475,0.9754259,-11.54981,-1.591154,-63.62135,1008.935
4.852385044,0.1683356,0.1329487,-0.2043774,0.2614836,-0.02481209,0.9725263,-11.54981,-1.591154,-63.62135,1008.935
4.857315063,-0.07656047,0.1329487,-0.4480684,0.263438,-0.02912612,0.9634055,-11.54981,-1.591154,-63.62135,1008.935
4.862245083,0.04588758,0.01297158,-0.3262229,0.2668842,-0.03300046,0.9724218,-11.54981,-1.591154,-63.62135,1008.935
4.867175579,-0.1377845,-0.1070056,-0.5699138,0.2596365,-0.03933014,0.9699764,-11.54981,-1.591154,-63.62135,1008.934
4.872105598,-0.1377845,0.01297158,-0.8745275,0.2659232,-0.03493761,0.9709696,-11.54981,-1.591154,-63.62135,1008.934
4.877035618,-0.3214566,0.07296016,-0.9963729,0.2630074,-0.03591302,0.9671459,-11.54981,-1.591154,-63.62135,1008.934
4.881966114,-0.2602325,0.07296016,-1.118218,0.2614818,-0.02624637,0.966783,-11.54981,-1.591154,-63.62135,1008.934
4.886896133,-0.1990085,0.07296016,-0.9963729,0.2677933,-0.02572095,0.9667771,-11.54981,-1.591154,-63.62135,1008.934
4.891826153,-0.2602325,-0.2269827,-0.8136048,0.2644095,-0.0252879,0.9763331,-11.9316,-1.59413,-63.99055,1008.934
4.896756172,-0.1377845,-0.2269827,-0.5699138,0.2735744,-0.01890867,0.9663675,-11.9316,-1.59413,-63.99055,1008.934
4.901686668,-0.01533645,-0.04701699,-0.2043774,0.276512,-0.02275373,0.9644088,-11.9316,-1.59413,-63.99055,1008.934
4.909081459,-0.01533645,0.1329487,0.3439272,0.2721483,-0.02183628,0.971586,-11.9316,-1.59413,-63.99055,1008.936
4.914011955,0.04588758,-0.1070056,0.40485,0.2692913,-0.03055865,0.9700593,-11.9316,-1.59413,-63.99055,1008.936
4.918941975,-0.01533645,0.3129145,0.2220818,0.2620275,-0.03542863,0.9647672,-11.9316,-1.59413,-63.99055,1008.936
4.923871994,0.04588758,0.07296016,0.1002363,0.2611024,-0.03885373,0.9757058,-11.9316,-1.59413,-63.99055,1008.936
4.928802013,-0.01533645,0.1329487,0.03931354,0.2605682,-0.03160362,0.9767449,-11.9316,-1.59413,-63.99055,1008.936
4.933732510,0.1071116,0.01297158,-0.1434547,0.2693095,-0.03345829,0.9690713,-11.9316,-1.59413,-63.99055,1008.936
4.938662529,-0.01533645,-0.1669942,-0.2043774,0.2692813,-0.03054453,0.9652871,-11.94282,-1.596337,-64.42955,1008.936
4.943592548,0.04588758,0.1929373,-0.3262229,0.2697817,-0.03391481,0.9609522,-11.94282,-1.596337,-64.42955,1008.936
4.948522091,-0.07656047,0.1929373,-0.3871456,0.2722135,-0.03390302,0.9623795,-11.94282,-1.596337,-64.42955,1008.936
4.953453064,-0.01533645,0.1929373,-0.4480684,0.2698434,-0.0402289,0.9694696,-11.94282,-1.596337,-64.42955,1008.936
4.958382606,-0.1377845,0.07296016,-0.6308365,0.265927,-0.03590085,0.9695268,-11.94282,-1.596337,-64.42955,1008.936
4.963312626,-0.07656047,0.1929373,-0.8136048,0.2605784,-0.03449195,0.9719391,-11.94282,-1.596337,-64.42955,1008.936
4.968243599,-0.3214566,0.01297158,-0.9963729,0.262029,-0.03351485,0.9719477,-11.94282,-1.596337,-64.42955,1008.936
4.973173141,-0.3214566,-0.04701699,-1.179141,0.2629878,-0.03253248,0.9690939,-11.94282,-1.596337,-64.42955,1008.936
4.978103161,-0.2602325,-0.1070056,-1.179141,0.2610804,-0.03738556,0.969996,-11.94282,-1.596337,-64.42955,1008.936
4.983033180,-0.4439045,-0.2269827,-1.240064,0.2692419,-0.02474102,0.9658312,-11.94282,-1.596337,-64.42955,1008.936
4.987962723,-0.6275766,-0.1669942,-1.179141,0.2662846,-0.01847301,0.9663862,-12.32068,-1.221296,-64.42673,1008.936
4.992889881,-0.4439045,-0.1070056,-1.179141,0.2706838,-0.02279361,0.9648965,-12.32068,-1.221296,-64.42673,1008.936
4.997819901,-0.1990085,-0.04701699,-0.752682,0.2697003,-0.01895126,0.972101,-12.32068,-1.221296,-64.42673,1008.936
5.002749920,-0.1990085,-0.04701699,-0.3871456,0.2677207,-0.01555952,0.9659398,-12.32068,-1.221296,-64.42673,1008.936
5.007680416,-0.1377845,0.01297158,-0.1434547,0.2663199,-0.02283376,0.968722,-12.32068,-1.221296,-64.42673,1008.936
5.012610435,-0.01533645,-0.04701699,0.161159,0.2639212,-0.02576637,0.9734652,-12.32068,-1.221296,-64.42673,1008.936
5.017540455,0.1683356,-0.04701699,0.1002363,0.2663927,-0.03443229,0.9647705,-12.32068,-1.221296,-64.42673,1008.936
5.022469997,-0.01533645,-0.04701699,-0.08253194,0.2649512,-0.03685921,0.964268,-12.32068,-1.221296,-64.42673,1008.936
5.027400970,-0.07656047,0.01297158,-0.2043774,0.2620923,-0.04318406,0.9699274,-12.32068,-1.221296,-64.42673,1008.936
5.032330990,0.1683356,-0.2269827,-0.5699138,0.2668741,-0.03154923,0.9724385,-12.32068,-1.221296,-64.42673,1008.934
5.037260532,-0.1990085,0.01297158,-0.752682,0.2683518,-0.03587917,0.9676136,-11.56511,-1.21692,-64.00189,1008.934
5.042190552,-0.3214566,0.01297158,-0.8745275,0.2649592,-0.03687051,0.9680858,-11.56511,-1.21692,-64.00189,1008.934
5.047125816,-0.2602325,0.01297158,-1.240064,0.2654877,-0.04315456,0.9675351,-11.56511,-1.21692,-64.00189,1008.934
5.052051067,-0.5051286,0.01297158,-1.6056,0.2649762,-0.03833163,0.9714095,-11.56511,-1.21692,-64.00189,1008.934
5.056981087,-0.5663526,-0.04701699,-1.849291,0.267428,-0.0421799,0.9694517,-11.56511,-1.21692,-64.00189,1008.934
5.061911106,-0.8112487,0.01297158,-2.275751,0.2654122,-0.03203129,0.9686178,-11.56511,-1.21692,-64.00189,1008.934
5.066841602,-1.056145,0.01297158,-2.458519,0.2639577,-0.03300275,0.9667005,-11.56511,-1.21692,-64.00189,1008.934
5.071771622,-0.9336967,-0.04701699,-2.580364,0.2658894,-0.03249488,0.9628848,-11.56511,-1.21692,-64.00189,1008.938
5.076701641,-0.8724728,0.07296016,-2.641287,0.2663489,-0.02814363,0.964843,-11.56511,-1.21692,-64.00189,1008.938
5.084096909,-0.8112487,0.01297158,-2.641287,0.2697378,-0.02618905,0.9658136,-11.56103,-1.593361,-64.06034,1008.938
5.089026928,-0.9336967,0.1329487,-2.275751,0.268279,-0.02428064,0.9715652,-11.56103,-1.593361,-64.06034,1008.938
5.093957424,-0.7500247,0.01297158,-2.153905,0.2692202,-0.01992054,0.9716136,-11.56103,-1.593361,-64.06034,1008.938
5.098887444,-0.9336967,0.01297158,-1.788369,0.268256,-0.02041635,0.9735187,-11.56103,-1.593361,-64.06034,1008.938
5.103817463,-0.5663526,-0.1070056,-1.666523,0.2634791,-0.03205824,0.9733936,-11.56103,-1.593361,-64.06034,1008.938
5.108747482,-0.5051286,0.01297158,-1.666523,0.2654487,-0.03783056,0.9666421,-11.56103,-1.593361,-64.06034,1008.938
5.113677979,-0.5663526,-0.04701699,-1.910214,0.2640004,-0.03785289,0.9709396,-11.56103,-1.593361,-64.06034,1008.937
5.118607998,-0.6888007,-0.1070056,-2.153905,0.2616293,-0.04561445,0.9727637,-11.56103,-1.593361,-64.06034,1008.937
5.123538017,-0.9336967,-0.1070056,-2.70221,0.2679311,-0.04651202,0.9631968,-11.56103,-1.593361,-64.06034,1008.937
5.128468037,-1.056145,0.01297158,-3.311437,0.2650241,-0.04606305,0.9684569,-11.56103,-1.593361,-64.06034,1008.937
5.133398533,-1.362265,0.1329487,-4.04251,0.2669929,-0.05087636,0.9645799,-11.5708,-0.8407955,-64.00616,1008.937
5.138328552,-1.668385,0.07296016,-4.834505,0.2602201,-0.05479259,0.9650248,-11.5708,-0.8407955,-64.00616,1008.937
5.143258572,-2.096953,0.1329487,-5.687424,0.267527,-0.05668937,0.9683298,-11.5708,-0.8407955,-64.00616,1008.937
5.148188114,-2.525521,0.1929373,-6.72311,0.2636397,-0.05527649,0.9726486,-11.5708,-0.8407955,-64.00616,1008.937
5.153119087,-2.831641,0.1929373,-7.880643,0.2583018,-0.05723543,0.9688181,-11.5708,-0.8407955,-64.00616,1008.935
5.158049107,-3.137761,0.3129145,-8.855407,0.2583207,-0.05726227,0.9778852,-11.5708,-0.8407955,-64.00616,1008.935
5.162978649,-3.443882,0.1329487,-9.952016,0.2602923,-0.06064271,0.9802287,-11.5708,-0.8407955,-64.00616,1008.935
5.167908669,-3.933674,0.1329487,-11.35324,0.2559041,-0.06016945,0.9740384,-11.5708,-0.8407955,-64.00616,1008.935
5.172839642,-4.301018,0.1329487,-12.08431,0.2554444,-0.0654783,0.9687286,-11.5708,-0.8407955,-64.00616,1008.935
5.177769184,-4.913259,0.1329487,-13.79015,0.2618704,-0.08140015,0.9685331,-11.5708,-0.8407955,-64.00616,1008.935
5.182699204,-5.464275,0.2529259,-15.43506,0.2604474,-0.08576909,0.9703944,-11.55943,-1.593046,-63.99763,1008.935
5.187625408,-6.382635,0.07296016,-17.6892,0.252778,-0.0988984,0.9759844,-11.55943,-1.593046,-63.99763,1008.935
5.192555904,-7.362219,0.1329487,-20.18704,0.2510133,-0.1245496,0.9756923,-11.55943,-1.593046,-63.99763,1008.935
5.197485924,-8.647923,0.3129145,-23.78148,0.2458466,-0.1506999,0.9730146,-11.55943,-1.593046,-63.99763,1008.935
5.202415943,-10.23975,0.4928802,-28.16792,0.2435974,-0.1753982,0.9765522,-11.55943,-1.593046,-63.99763,1008.935
5.207345963,-12.13769,0.372903,-33.34634,0.229776,-0.2122697,0.9809259,-11.55943,-1.593046,-63.99763,1008.935
5.212276459,-14.64788,0.5528688,-39.86508,0.2256069,-0.2398875,0.9858652,-11.55943,-1.593046,-63.99763,1008.935
5.217206478,-17.15806,0.6728459,-47.23673,0.221951,-0.2732886,0.9845328,-11.55943,-1.593046,-63.99763,1008.935
5.222136498,-20.34171,0.6128573,-55.33945,0.20856,-0.3019361,0.9899548,-11.55943,-1.593046,-63.99763,1008.935
5.227066040,-23.46414,0.6728459,-64.05141,0.2077628,-0.3261382,0.9925409,-11.55943,-1.593046,-63.99763,1008.935
5.231997013,-27.07635,0.6728459,-73.92089,0.193367,-0.3528289,0.9884428,-12.32068,-1.221296,-64.42673,1008.938
5.236928940,-30.62735,0.9727888,-83.91222,0.1886299,-0.3645273,1.007406,-12.32068,-1.221296,-64.42673,1008.938
5.241856575,-34.42324,0.7328345,-94.5737,0.178506,-0.3766783,1.003945,-12.32068,-1.221296,-64.42673,1008.938
5.246786594,-37.30077,0.8528116,-105.2961,0.1776364,-0.3911984,1.004256,-12.32068,-1.221296,-64.42673,1008.938
5.251717090,-42.13746,0.7928231,-116.7496,0.1683766,-0.3830738,1.017252,-12.32068,-1.221296,-64.42673,1008.938
5.259112358,-47.21906,0.372903,-133.9298,0.15688,-0.4054129,1.020357,-12.32068,-1.221296,-64.42673,1008.938
5.264042377,-49.42312,-0.7068914,-144.835,0.1355896,-0.4128567,1.03606,-12.32068,-1.221296,-64.42673,1008.938
5.268972397,-51.62719,-2.266594,-156.2884,0.1181047,-0.4062703,1.060031,-12.32068,-1.221296,-64.42673,1008.938
5.273902416,-53.77003,-3.646332,-167.1936,0.1137431,-0.4091875,1.055233,-12.32068,-1.221296,-64.42673,1008.938
5.278832912,-57.62714,-5.026069,-179.3782,0.08320002,-0.3527431,1.040669,-12.32068,-1.221296,-64.42673,1008.938
5.283762932,-69.68827,-3.586343,-193.3904,0.0344294,-0.4238889,0.9425858,-12.32068,-1.221296,-64.42673,1008.938
5.288692951,-71.2801,-0.466937,-204.8439,0.230131,-0.4960049,0.8993909,-12.32068,-1.221296,-64.42673,1008.938
5.293622970,-76.66781,3.132378,-217.9423,0.1010121,-0.4397812,0.9031445,-12.32068,-1.221296,-64.42673,1008.938
5.298553467,-83.34122,7.811486,-229.5176,0.06661894,-0.5818678,0.9407057,-12.32068,-1.221296,-64.42673,1008.938
5.303483486,-86.831,10.27102,-242.4332,0.184627,-0.3413968,1.029156,-12.32068,-1.221296,-64.42673,1008.938
5.308413505,-103.9125,6.311772,-268.569,-0.1721679,-0.416156,1.137774,-12.32068,-1.221296,-64.42673,1008.938
5.313343525,-110.4635,8.711314,-284.348,-0.0215654,-0.5827704,1.048716,-12.32068,-1.221296,-64.42673,1008.938
5.318274021,-109.6676,7.69151,-297.4464,-0.01000452,-0.637371,1.051883,-12.32068,-1.221296,-64.42673,1008.938
5.323204040,-109.4839,7.331578,-309.9965,-0.1557448,-0.5236308,1.1995,-12.32068,-1.221296,-64.42673,1008.938
5.328134060,-118.545,4.452127,-327.0549,-0.1881788,-0.5249628,1.250132,-10.85295,-0.4666014,-64.83985,1008.938
5.333064079,-124.3001,1.692652,-343.3821,-0.2036217,-0.6341488,1.165865,-10.85295,-0.4666014,-64.83985,1008.938
5.337994575,-125.3409,1.392709,-357.8208,-0.1887145,-0.6209022,1.136879,-10.85295,-0.4666014,-64.83985,1008.938
5.342924595,-129.0756,0.2529259,-373.7217,-0.2504955,-0.4674867,1.143534,-10.85295,-0.4666014,-64.83985,1008.938
5.347854137,-146.2183,1.572675,-398.5172,-0.1614089,-0.5890431,1.058451,-10.85295,-0.4666014,-64.83985,1008.938
5.352784157,-151.7897,5.351955,-416.9768,-0.2059047,-0.5467725,1.061407,-10.85295,-0.4666014,-64.83985,1008.94
5.357715130,-161.4019,6.731692,-436.6549,-0.3076186,-0.5607991,1.160224,-10.85295,-0.4666014,-64.83985,1008.94
5.362644672,-169.5447,6.191795,-455.6628,-0.4417348,-0.5261765,1.258708,-10.85295,-0.4666014,-64.83985,1008.94
5.367574692,-173.3405,5.711887,-471.6245,-0.4427772,-0.581856,1.271431,-10.85295,-0.4666014,-64.83985,1008.94
5.372505665,-175.1773,3.912229,-485.9414,-0.5049142,-0.5938197,1.252321,-10.85295,-0.4666014,-64.83985,1008.94
5.377435207,-176.2181,3.852241,-498.9179,-0.501636,-0.5826076,1.230968,-10.15392,1.79011,-65.3186,1008.94
5.382365227,-175.912,3.432321,-511.5898,-0.6517917,-0.1911373,1.355545,-10.15392,1.79011,-65.3186,1008.94
5.387291908,-200.4016,2.712458,-538.5786,-0.5717572,-0.5007097,1.191478,-10.15392,1.79011,-65.3186,1008.94
5.392222404,-197.7077,6.971647,-549.1792,-0.5539569,-0.3246166,1.232129,-10.15392,1.79011,-65.3186,1008.94
5.397151947,-206.0954,5.951841,-565.2019,-0.6167195,-0.3615047,1.296249,-10.15392,1.79011,-65.3186,1008.939
5.402081966,-210.8709,6.671704,-578.5439,-0.711208,-0.3773123,1.359239,-10.15392,1.79011,-65.3186,1008.939
5.407011986,-215.4627,5.231978,-591.4596,-0.7073386,-0.2889195,1.414654,-10.15392,1.79011,-65.3186,1008.939
5.411942482,-219.1361,4.632092,-603.9487,-0.8270429,-0.3667429,1.289902,-10.15392,1.79011,-65.3186,1008.939
5.416872501,-222.381,4.992024,-614.9149,-0.7264505,-0.3003026,1.295728,-10.15392,1.79011,-65.3186,1008.939
5.421802521,-222.8096,6.43175,-625.1498,-0.6485302,-0.3450935,1.238275,-10.15392,1.79011,-65.3186,1008.939
5.426732063,-220.1769,8.47136,-632.095,-0.8609579,-0.1389431,1.398058,-10.61243,5.481597,-66.54505,1008.939
5.431663036,-222.8708,4.812058,-639.9541,-0.9327535,-0.2168832,1.418771,-10.61243,5.481597,-66.54505,1008.939
5.439058304,-219.9933,5.351955,-648.4833,-0.9512474,0.8546098,1.731327,-10.61243,5.481597,-66.54505,1008.937
5.443988323,-249.8706,7.69151,-670.9637,-0.9216492,-0.8334668,0.7125018,-10.61243,5.481597,-66.54505,1008.937
5.448917866,-244.4216,9.851097,-675.4111,-1.056452,0.0884911,1.596233,-10.61243,5.481597,-66.54505,1008.937
5.453847885,-250.0542,9.551155,-686.9255,-1.020173,-0.03505238,1.574221,-10.61243,5.481597,-66.54505,1008.937
5.458778858,-244.789,4.812058,-688.0221,-1.209572,-0.1996475,1.516368,-10.61243,5.481597,-66.54505,1008.937
5.463708401,-241.9115,-0.6469028,-691.7993,-0.9415961,0.4022963,1.582452,-10.61243,5.481597,-66.54505,1008.937
