Time (s),Gyroscope X (deg/s),Gyroscope Y (deg/s),Gyroscope Z (deg/s),Accelerometer X (g),Accelerometer Y (g),Accelerometer Z (g),Magnetometer X (uT),Magnetometer Y (uT),Magnetometer Z (uT),Barometer (hPa)
0.006693840,-0.1022435,0.1471357,-0.08607867,-0.02986471,0.9891049,0.1622362,-6.980646,-28.86147,-21.37364,1009.175
0.011768818,0.1452488,0.08755435,-0.2080193,-0.03026234,0.9842242,0.1617552,-6.980646,-28.86147,-21.37364,1009.175
0.016844749,0.3925272,0.3254364,-0.02492532,-0.03370044,0.986133,0.1632011,-6.980646,-28.86147,-21.37364,1009.175
0.021920681,0.2686541,0.5036988,0.09708501,-0.03267151,0.9832365,0.1646337,-6.980646,-28.86147,-21.37364,1009.175
0.026997089,0.2684659,0.3844044,-0.02497065,-0.03565897,0.986573,0.1608112,-6.980646,-28.86147,-21.37364,1009.175
0.032072067,0.2064159,0.3841442,0.2190344,-0.03276833,0.9880732,0.1603266,-6.980646,-28.86147,-21.37364,1009.175
0.037147999,0.33001,0.5028434,-0.08604199,-0.03273339,0.986649,0.1651149,-6.980646,-28.86147,-21.37364,1009.175
0.042223930,0.3916256,0.6809196,0.09697533,-0.03180041,0.9880655,0.1574508,-6.596088,-28.86447,-21.37085,1009.175
0.047299862,0.3294984,0.9184288,0.09693357,-0.03430648,0.992442,0.1612907,-6.596088,-28.86447,-21.37085,1009.175
0.052375317,0.2674489,0.9178519,0.2797976,-0.034138,0.9837093,0.1655952,-6.596088,-28.86447,-21.37085,1009.175
0.054913521,0.1436412,0.9175635,0.2187028,-0.03465037,0.9846395,0.1608077,-6.596088,-28.86447,-21.37085,1009.175
0.059989452,0.4528408,0.7980092,0.0966282,-0.03335573,0.9939393,0.164163,-6.596088,-28.86447,-21.37085,1009.175
0.065065384,0.4525174,0.7379442,0.2185622,-0.03080415,0.987659,0.1660689,-6.596088,-28.86447,-21.37085,1009.175
0.070146084,0.3904102,0.8564398,0.03538495,-0.03233656,0.9915261,0.165117,-6.596088,-28.86447,-21.37085,1009.175
0.075216293,0.2664606,0.915372,0.09636963,-0.037554,0.9836078,0.1588981,-6.596088,-28.86447,-21.37085,1009.175
0.080292702,0.45184,0.9148156,0.1573543,-0.03132386,0.9890834,0.1622396,-6.596088,-28.86447,-21.37085,1009.177
0.085368633,0.3277935,0.9737486,0.1572555,-0.03136872,0.9920457,0.1675097,-6.596088,-28.86447,-21.37085,1009.177
0.090444565,0.575035,0.9136665,0.03510453,-0.03181839,0.9895669,0.1627199,-6.98275,-28.86644,-21.82805,1009.177
0.095522404,0.2035609,1.032033,0.1570963,-0.03132137,0.9885671,0.1584079,-6.98275,-28.86644,-21.82805,1009.177
0.100595474,0.3889603,0.7339774,0.2180045,-0.03037062,0.9900643,0.1612801,-6.98275,-28.86644,-21.82805,1009.177
0.105671406,0.3887548,1.030924,0.03482766,-0.03433092,0.9939139,0.1627284,-6.98275,-28.86644,-21.82805,1009.177
0.110747814,0.2029833,0.9113542,-0.02618197,-0.03242774,0.9963886,0.1641623,-6.98275,-28.86644,-21.82805,1009.177
0.115822792,0.388422,0.7323523,0.1568552,-0.03575176,0.9914283,0.1588987,-6.98275,-28.86644,-21.82805,1009.177
0.120898724,0.2026507,0.8508514,-0.02622573,-0.0337867,0.9904903,0.1598515,-6.98275,-28.86644,-21.82805,1009.183
0.125974655,0.6354786,0.8503355,-0.08721617,-0.03868555,0.9923703,0.1603429,-6.98275,-28.86644,-21.82805,1009.183
0.131050587,0.3877291,0.4929238,-0.02619279,-0.03674009,0.9929263,0.1656069,-6.98275,-28.86644,-21.82805,1009.183
0.136126041,0.2637813,0.6710997,0.03481141,-0.03610791,0.9846253,0.1617689,-5.831177,-28.88042,-22.27411,1009.183
0.141201973,0.2017731,0.2542929,-0.08726262,-0.02840475,0.98913,0.1627118,-5.831177,-28.88042,-22.27411,1009.183
0.146277905,0.2016075,0.2541892,0.03480604,-0.03432116,0.9934307,0.163207,-5.831177,-28.88042,-22.27411,1009.183
0.151353836,0.139619,0.2540669,0.09581025,-0.03376805,0.9900473,0.1655983,-5.831177,-28.88042,-22.27411,1009.183
0.156429291,0.1395313,-0.1624779,0.09573089,-0.03857977,0.9870465,0.1646497,-5.831177,-28.88042,-22.27411,1009.183
0.161505222,-0.04610309,-0.1623385,0.09567075,-0.03705139,0.9831611,0.163207,-5.831177,-28.88042,-22.27411,1009.18
0.166581154,0.1394726,-0.6381293,0.03464206,-0.03622757,0.9909415,0.1598574,-5.831177,-28.88042,-22.27411,1009.18
0.171657085,0.2012468,-0.5782394,-0.02632912,-0.03773723,0.9938565,0.1617784,-5.831177,-28.88042,-22.27411,1009.18
0.176732540,0.1392585,-0.6968541,-0.1482689,-0.03671315,0.9909379,0.1603374,-5.831177,-28.88042,-22.27411,1009.18
0.181808472,0.2628365,-0.9342785,-0.3312348,-0.02937421,0.988603,0.1593613,-5.831177,-28.88042,-22.27411,1009.18
0.186889172,0.3245138,-1.171591,-0.2090321,-0.03865538,0.9903967,0.1569891,-7.367298,-29.2446,-21.82508,1009.18
0.191960335,0.2624869,-1.289796,-0.5138587,-0.03571836,0.9894692,0.1574607,-7.367298,-29.2446,-21.82508,1009.18
0.197035790,0.200499,-1.407926,-0.4525865,-0.0299111,0.9915324,0.16128,-7.367298,-29.2446,-21.82508,1009.18
0.202111721,0.4477817,-1.40706,-0.3303075,-0.03671396,0.9909343,0.1598585,-7.367298,-29.2446,-21.82508,1009.18
0.207188129,0.2619148,-1.465665,-0.4520755,-0.02837869,0.9876654,0.1622319,-7.367298,-29.2446,-21.82508,1009.18
0.212263584,0.3235927,-1.524159,-0.51276,-0.02941246,0.9905399,0.1579258,-7.367298,-29.2446,-21.82508,1009.18
0.217339039,0.5089749,-1.820608,-0.5124379,-0.03088057,0.9910054,0.1579294,-7.367298,-29.2446,-21.82508,1009.18
0.219876766,0.4469532,-1.939014,-0.5122769,-0.02793951,0.9900964,0.1607956,-7.367298,-29.2446,-21.82508,1009.18
0.224952698,0.3848688,-1.878307,-0.6339306,-0.0323544,0.9919727,0.1598491,-7.367298,-29.2446,-21.82508,1009.18
0.230028629,0.3846076,-1.63919,-0.389543,-0.03722325,0.9929338,0.1675237,-7.367298,-29.2446,-21.82508,1009.18
0.235104561,0.5080897,-1.757064,-0.5722616,-0.02897585,0.9940147,0.1655897,-6.598192,-28.86944,-21.82527,1009.18
0.240180016,0.1985973,-1.993897,-0.4499457,-0.02609982,0.9959762,0.1617529,-6.598192,-28.86944,-21.82527,1009.18
0.245255947,0.1984337,-1.754726,-0.3886561,-0.02561432,0.996507,0.1665413,-6.598192,-28.86944,-21.82527,1009.18
0.250331879,0.2601514,-1.753623,-0.510445,-0.02935879,0.9881454,0.1631923,-6.598192,-28.86944,-21.82527,1009.18
0.255407333,0.07442182,-1.752559,-0.3880913,-0.02610628,0.9959468,0.1579215,-6.598192,-28.86944,-21.82527,1009.18
0.260483265,0.2599218,-1.63248,-0.3268789,-0.02363127,0.9940677,0.162225,-6.598192,-28.86944,-21.82527,1009.18
0.265559197,0.07423121,-1.512552,-0.3876421,-0.02795088,0.9905724,0.1593592,-6.598192,-28.86944,-21.82527,1009.18
0.270635128,-0.0495197,-1.273721,-0.3263917,-0.02559553,0.9950094,0.1617511,-6.598192,-28.86944,-21.82527,1009.18
0.275711060,0.01237327,-1.213431,-0.2651797,-0.02453231,0.9896301,0.1569561,-6.598192,-28.86944,-21.82527,1009.18
0.280786514,0.3834783,-0.8557728,-0.2040254,-0.02796065,0.9910557,0.1588806,-6.598181,-29.2506,-21.81951,1009.18
0.285862446,0.1977102,-0.6768057,-0.08186424,-0.02600938,0.9905826,0.1569601,-6.598181,-29.2506,-21.81951,1009.18
0.290938377,0.07386224,-0.7358695,-0.08181281,-0.02557512,0.993519,0.1579188,-6.598181,-29.2506,-21.81951,1009.18
0.296014309,0.07385471,-0.2001376,-0.08179975,-0.03043493,0.9934658,0.1603245,-6.598181,-29.2506,-21.81951,1009.18
0.301089764,-0.04989598,-0.2000119,0.162241,-0.02794993,0.9895213,0.1493011,-6.598181,-29.2506,-21.81951,1009.18
0.306165695,0.1975439,-0.02143814,0.1011896,-0.03187529,0.9919468,0.1555377,-6.598181,-29.2506,-21.81951,1009.18
0.311241627,0.01185369,0.3949418,0.2230824,-0.03285782,0.9924157,0.1550613,-6.598181,-29.2506,-21.81951,1009.18
0.316317558,0.07366924,0.2162642,0.28393,-0.03325061,0.9875571,0.1574538,-6.598181,-29.2506,-21.81951,1009.18
0.321392536,0.01174166,0.6324949,0.1007692,-0.03438055,0.9963269,0.1598565,-6.598181,-29.2506,-21.81951,1009.18
0.326470852,-0.2975362,0.8104896,0.1616937,-0.02933266,0.9861533,0.1574439,-6.598181,-29.2506,-21.81951,1009.18
0.331544876,-0.2355262,1.226347,0.2835868,-0.03099868,0.9978563,0.1622443,-7.367321,-28.48229,-21.83659,1009.18
0.336620808,-0.1735164,1.166144,0.1003687,-0.03627066,0.9928563,0.1555484,-7.367321,-28.48229,-21.83659,1009.18
0.341695786,-0.3588764,1.4628,0.2833072,-0.03530274,0.9928486,0.1526726,-7.367321,-28.48229,-21.83659,1009.18
0.346771717,-0.4823552,1.52137,0.2221415,-0.03579654,0.9938631,0.1589004,-7.367321,-28.48229,-21.83659,1009.18
0.351847649,-0.6057371,1.758295,0.283028,-0.0338485,0.9933754,0.1550642,-7.367321,-28.48229,-21.83659,1009.18
0.356924057,-0.5435336,1.816735,0.2218625,-0.03772174,0.9928716,0.1603409,-7.367321,-28.48229,-21.83659,1009.18
0.361999035,-0.4813302,2.172453,0.4656741,-0.03808751,0.9854972,0.1521955,-7.367321,-28.48229,-21.83659,1009.18
0.367074967,-0.4191854,2.05211,0.4653624,-0.03329531,0.9894646,0.1521869,-7.367321,-28.48229,-21.83659,1009.18
0.372150898,-0.3570991,2.348266,0.4041014,-0.04052774,0.9870068,0.1632173,-7.367321,-28.48229,-21.83659,1009.18
0.377226830,-0.1713086,2.346865,0.3428406,-0.04597795,0.9912229,0.1517383,-6.98275,-28.86644,-21.82805,1009.18
0.382302284,-0.2949052,2.226413,0.6476215,-0.04443907,0.9873852,0.1565216,-6.98275,-28.86644,-21.82805,1009.18
0.387378216,-0.1709768,2.106018,0.586246,-0.04496128,0.9893259,0.156524,-6.98275,-28.86644,-21.82805,1009.18
0.389916420,-0.04719938,2.164845,0.6470688,-0.04636501,0.9858626,0.1522148,-6.98275,-28.86644,-21.82805,1009.18
0.394992352,-0.04713086,2.044544,0.7686953,-0.04942669,0.9941388,0.1574951,-6.98275,-28.86644,-21.82805,1009.18
0.400073052,0.1384066,1.924357,0.829181,-0.04652218,0.9946467,0.1546152,-6.98275,-28.86644,-21.82805,1009.18
0.405143261,-0.04724651,1.744719,0.8286792,-0.05413336,0.9852831,0.1551059,-6.98275,-28.86644,-21.82805,1009.18
0.410219669,0.0765069,1.803055,0.5841309,-0.05330227,0.9930966,0.1560666,-6.98275,-28.86644,-21.82805,1009.18
0.415295601,0.1382818,1.564004,0.644771,-0.05269212,0.9862785,0.1551032,-6.98275,-28.86644,-21.82805,1009.18
0.420370579,0.1382533,1.622529,0.522352,-0.05031959,0.9892105,0.151747,-6.98275,-28.86644,-21.82805,1009.18
0.425446510,0.01446212,1.502532,0.4610362,-0.05518673,0.9896517,0.155111,-6.598192,-28.86944,-21.82527,1009.18
0.430522442,0.01441416,1.204237,0.4607657,-0.05561204,0.9862283,0.154152,-6.598192,-28.86944,-21.82527,1009.18
0.435598374,0.1999713,0.9655623,0.09445392,-0.05470035,0.9896589,0.1551099,-6.598192,-28.86944,-21.82527,1009.18
0.440673828,0.1380032,0.6675297,0.3384222,-0.05265872,0.9843196,0.1536651,-6.598192,-28.86944,-21.82527,1009.18
0.445754528,0.2616208,0.4886062,0.09422031,-0.05473287,0.9910942,0.1517584,-6.598192,-28.86944,-21.82527,1009.18
0.450825691,0.07590973,0.2503995,0.2161366,-0.0518114,0.9916791,0.1589359,-6.598192,-28.86944,-21.82527,1009.18
0.455901623,0.1996052,0.01230514,0.1549748,-0.04739885,0.9892645,0.1531771,-6.598192,-28.86944,-21.82527,1009.18
0.460977078,0.1995381,-0.1661507,0.1549157,-0.05275158,0.9897022,0.1570211,-6.598192,-28.86944,-21.82527,1009.18
0.466053009,0.38494,-0.5229238,0.0938115,-0.04971435,0.9828979,0.1531785,-6.598192,-28.86944,-21.82527,1009.18
0.471131802,0.3847176,-0.6415733,0.03274564,-0.05034734,0.9911953,0.1565376,-6.598192,-28.86944,-21.82527,1009.18
0.476204872,0.3844954,-0.7601107,-0.08925043,-0.05039043,0.9931101,0.1522285,-6.600307,-28.49327,-22.28543,1009.18
0.481280327,0.260569,-0.9380439,-0.08915602,-0.0488434,0.9887818,0.1565326,-6.600307,-28.49327,-22.28543,1009.18
0.486356259,0.07478084,-1.175392,-0.2110947,-0.0440512,0.9927492,0.156524,-6.600307,-28.49327,-22.28543,1009.18
0.491432190,0.4458662,-1.353139,-0.2719881,-0.03971368,0.9952705,0.1593892,-6.600307,-28.49327,-22.28543,1009.182
0.496511936,0.07447319,-1.590263,-0.2718364,-0.04077358,1.000137,0.1608314,-6.600307,-28.49327,-22.28543,1009.182
0.501583576,0.1362688,-1.529775,-0.3326534,-0.04108077,0.9898629,0.1555576,-6.600307,-28.49327,-22.28543,1009.182
0.506659508,0.01247893,-1.647792,-0.3324444,-0.03970722,0.9952999,0.1632206,-6.600307,-28.49327,-22.28543,1009.182
0.511735439,0.01250996,-1.587249,-0.3932617,-0.03425186,0.9889964,0.1564992,-6.600307,-28.49327,-22.28543,1009.182
0.516811371,-0.1730252,-1.7647,-0.3930146,-0.03423725,0.9885352,0.1598513,-6.600307,-28.49327,-22.28543,1009.182
0.521887303,-0.04921219,-1.823024,-0.1487592,-0.03232019,0.9900174,0.15889,-7.367332,-28.10113,-21.84235,1009.182
0.526962757,-0.1729244,-1.881331,-0.1486658,-0.03330838,0.9904606,0.1550611,-7.367332,-28.10113,-21.84235,1009.182
0.532038689,0.07461222,-1.76119,-0.270567,-0.03476915,0.9904318,0.1541066,-7.367332,-28.10113,-21.84235,1009.184
0.537114620,-0.04911951,-1.760083,-0.2094476,-0.03276503,0.9875606,0.1569738,-7.367332,-28.10113,-21.84235,1009.184
0.542190552,-0.1728124,-1.996896,-0.1483091,-0.02754672,0.9949551,0.1584031,-7.367332,-28.10113,-21.84235,1009.184
0.547266007,0.07470477,-1.817193,0.09583084,-0.02260476,0.9911601,0.1622208,-7.367332,-28.10113,-21.84235,1009.184
0.552341938,-0.1108889,-1.756581,0.09578981,-0.02693333,0.9881517,0.1593554,-7.367332,-28.10113,-21.84235,1009.184
0.554879666,-0.110854,-1.756029,0.2177735,-0.027027,0.9935306,0.1622324,-7.367332,-28.10113,-21.84235,1009.184
0.559955597,0.07480118,-1.695437,0.2176176,-0.02406069,0.9911533,0.1641398,-7.367332,-28.10113,-21.84235,1009.184
0.565031052,0.07475419,-1.575432,0.2784878,-0.02798348,0.992535,0.1612762,-7.367332,-28.10113,-21.84235,1009.184
0.570106983,0.07472666,-1.455483,0.3393197,-0.02743198,0.9891443,0.1627096,-7.367332,-28.10113,-21.84235,1009.184
0.575182915,0.136561,-1.276102,0.3391449,-0.0216157,0.9901931,0.1612601,-6.982738,-29.2476,-21.8223,1009.184
0.580258846,0.1982594,-1.394222,0.1559111,-0.02356454,0.9906772,0.1646173,-6.982738,-29.2476,-21.8223,1009.184
0.585334301,0.0744305,-0.7390425,0.2168392,-0.02155623,0.9867695,0.1593421,-6.982738,-29.2476,-21.8223,1009.184
0.590410233,-0.04933998,-1.035929,0.09470835,-0.02592319,0.9867528,0.1655782,-6.982738,-29.2476,-21.8223,1009.184
0.595486164,0.136296,-0.7379087,-0.02732665,-0.02342777,0.9833834,0.1660493,-6.982738,-29.2476,-21.8223,1009.184
0.600562096,0.07430968,-0.4995268,-0.02732865,-0.02703031,0.9940433,0.1655852,-6.982738,-29.2476,-21.8223,1009.184
0.605637550,0.01242058,-0.3802538,0.03369544,-0.02206948,0.9882233,0.1593442,-6.982738,-29.2476,-21.8223,1009.184
0.610713482,0.07427463,-0.2015855,0.03367426,-0.02159852,0.9886881,0.155512,-6.982738,-29.2476,-21.8223,1009.188
0.615789414,0.0742474,0.2149263,0.03367227,-0.0201826,0.9916793,0.1617366,-6.982738,-29.2476,-21.8223,1009.188
0.620865822,0.1360432,0.2147913,0.155665,-0.0201989,0.9926605,0.1626951,-6.5961,-28.48331,-21.37661,1009.188
0.625940323,0.1978002,0.2146003,0.09457941,-0.02013863,0.9892406,0.1612561,-6.5961,-28.48331,-21.37661,1009.188
0.631016731,0.4450845,0.2740105,-0.1494502,-0.0161287,0.982978,0.1626797,-6.5961,-28.48331,-21.37661,1009.188
0.636092663,0.2592193,0.6306411,0.1555633,-0.02105201,0.9863301,0.1646089,-6.5961,-28.48331,-21.37661,1009.188
0.641168595,0.1353133,0.5707747,0.09443949,-0.01569693,0.9864308,0.1674701,-6.5961,-28.48331,-21.37661,1009.188
0.646243572,0.1971096,0.6894127,0.3383695,-0.01620027,0.9863465,0.1574138,-6.5961,-28.48331,-21.37661,1009.188
0.651319504,0.6299798,1.045857,0.3990872,-0.02656991,0.9949877,0.1607955,-6.5961,-28.48331,-21.37661,1009.19
0.656395912,0.6914265,0.9857112,0.6428258,-0.02355639,0.9901865,0.1641381,-6.5961,-28.48331,-21.37661,1009.19
0.661471844,0.5672684,1.163559,0.337464,-0.02005722,0.9848614,0.1617321,-6.5961,-28.48331,-21.37661,1009.19
0.666546822,0.6287739,1.222279,0.3982398,-0.02271216,0.9964765,0.1569561,-6.5961,-28.48331,-21.37661,1009.19
0.671622753,0.8758458,1.221493,0.2150072,-0.01928721,0.9960911,0.163653,-6.980658,-28.48031,-21.37939,1009.19
0.676698685,0.6897294,1.399155,0.3368859,-0.01827942,0.9941537,0.1631705,-6.980658,-28.48031,-21.37939,1009.19
0.681774616,0.5037494,1.338824,0.2757057,-0.02078218,0.9980175,0.1636576,-6.980658,-28.48031,-21.37939,1009.19
0.686850071,0.5653143,1.397416,0.03158152,-0.02268294,0.9955539,0.1636605,-6.980658,-28.48031,-21.37939,1009.19
0.691926003,0.4412549,1.396519,0.09258777,-0.01982982,0.9995221,0.1674878,-6.980658,-28.48031,-21.37939,1009.19
0.697003365,0.6265243,1.57409,-0.1514789,-0.0271678,1.000806,0.1584059,-6.980658,-28.48031,-21.37939,1009.19
0.702077866,0.3168992,1.513631,0.03161784,-0.02670917,1.002798,0.1631953,-6.980658,-28.48031,-21.37939,1009.19
0.707156182,0.2548577,1.155803,-0.3344052,-0.02657564,0.9954894,0.1627115,-6.980658,-28.48031,-21.37939,1009.19
0.712229252,0.3783824,1.273998,-0.151251,-0.02909543,0.9998034,0.1584097,-6.980658,-28.48031,-21.37939,1009.19
0.717305184,0.378203,1.451684,0.03188392,-0.03146474,0.9968861,0.1636815,-6.980646,-28.86147,-21.37364,1009.19
0.719843388,0.4399461,1.213272,-0.02913302,-0.03156002,1.002258,0.1656007,-6.980646,-28.86147,-21.37364,1009.19
0.724919319,0.3159848,1.153021,-0.0900833,-0.03004375,0.9983172,0.1569742,-6.980646,-28.86147,-21.37364,1009.19
0.729994297,0.3776482,0.9738295,0.2149312,-0.03244155,0.9968535,0.1612891,-6.980646,-28.86147,-21.37364,1009.19
0.735070229,0.3155491,0.9137474,0.3977403,-0.02947765,0.9944652,0.1617597,-6.980646,-28.86147,-21.37364,1009.192
0.740146637,0.5009364,0.7941955,0.3975287,-0.03280585,0.9905413,0.1646385,-6.980646,-28.86147,-21.37364,1009.192
0.745222569,0.624326,0.7936966,0.4583434,-0.03182735,0.9900539,0.1627203,-6.980646,-28.86147,-21.37364,1009.192
0.750297547,0.8713229,0.7337278,0.5800309,-0.03516524,0.9860859,0.1598519,-6.980646,-28.86147,-21.37364,1009.192
0.755373478,1.056303,0.6737779,0.5186788,-0.03454951,0.979821,0.1675095,-6.980646,-28.86147,-21.37364,1009.192
0.760449410,1.303028,0.4949065,0.7013546,-0.0310968,0.9774508,0.1694157,-6.980646,-28.86147,-21.37364,1009.192
0.765525341,1.549657,0.7325139,0.5789001,-0.02817769,0.9774975,0.169888,-7.367298,-29.2446,-21.82508,1009.192
0.770600796,1.73423,0.3751949,0.7005119,-0.03204109,0.9759829,0.1703749,-7.367298,-29.2446,-21.82508,1009.192
0.775676727,1.671299,0.4344668,0.6390841,-0.02899343,0.9697538,0.1780268,-7.367298,-29.2446,-21.82508,1009.192
0.780752659,1.855795,0.612642,0.516688,-0.02757165,0.9711884,0.1717984,-7.367298,-29.2446,-21.82508,1009.192
0.785828590,1.730964,0.6122384,0.3333618,-0.02805649,0.971716,0.1780258,-7.367298,-29.2446,-21.82508,1009.192
0.790904045,1.606172,0.7307943,0.2111769,-0.02858024,0.9731221,0.1718019,-7.367298,-29.2446,-21.82508,1009.192
0.795979977,1.667006,0.5519431,0.2110442,-0.02902023,0.9706873,0.1727592,-7.367298,-29.2446,-21.82508,1009.192
0.801055908,1.727762,0.3731296,0.2108925,-0.03439821,0.9725934,0.1775621,-7.367298,-29.2446,-21.82508,1009.192
0.806131840,1.850381,0.3728391,0.0277584,-0.03399963,0.976423,0.167985,-7.367298,-29.2446,-21.82508,1009.192
0.811207294,1.416302,0.1941007,0.3326989,-0.03449166,0.9763901,0.1646336,-7.367298,-29.2446,-21.82508,1009.192
0.816283226,1.477235,0.1939601,0.210476,-0.03219892,0.9837086,0.1617593,-6.5961,-28.48331,-21.37661,1009.192
0.821359158,1.290741,0.1938383,0.3933262,-0.03811864,0.988522,0.1656073,-6.5961,-28.48331,-21.37661,1009.192
0.826435089,1.104364,0.07475731,0.3930791,-0.03869855,0.9928389,0.1579486,-6.5961,-28.48331,-21.37661,1009.192
0.831512451,0.9800048,0.01527747,0.27078,-0.04212284,0.9942828,0.1622677,-6.5961,-28.48331,-21.37661,1009.192
0.836586475,0.7319612,-0.3416283,0.1486153,-0.04070517,0.9962265,0.1589131,-6.5961,-28.48331,-21.37661,1009.192
0.841662407,0.7314819,-0.103458,0.2704974,-0.04132743,1.002989,0.1526927,-6.5961,-28.48331,-21.37661,1009.192
0.846738338,0.359929,-0.3412926,0.1483328,-0.04326893,1.002979,0.1550918,-6.5961,-28.48331,-21.37661,1009.192
0.851813793,0.2359791,-0.5789966,-0.09574972,-0.04098354,1.010792,0.1531757,-6.5961,-28.48331,-21.37661,1009.192
0.856889725,-0.07340068,-0.6381592,-0.2786911,-0.04041244,1.005907,0.1502978,-6.5961,-28.48331,-21.37661,1009.192
0.861967087,-0.1352359,-0.7567174,-0.2785544,-0.0477709,1.009209,0.1503168,-6.982761,-28.48529,-21.83381,1009.192
0.867041588,-0.5681645,-0.9941791,-0.5833373,-0.04145039,1.009818,0.154134,-6.982761,-28.48529,-21.83381,1009.192
0.872116566,-0.7533543,-0.8745953,-0.7049847,-0.04966842,1.00676,0.1522353,-6.982761,-28.48529,-21.83381,1009.192
0.877192974,-0.9384277,-1.052494,-0.7655104,-0.04879902,1.012109,0.1493631,-6.982761,-28.48529,-21.83381,1009.192
0.882268906,-0.9377993,-0.7544069,-0.8260365,-0.04235225,1.005377,0.1483862,-6.982761,-28.48529,-21.83381,1009.192
0.887346745,-1.060934,-0.9323437,-0.9475121,-0.04675577,1.006777,0.1488762,-6.982761,-28.48529,-21.83381,1009.192
0.889882565,-1.122463,-1.110518,-0.8252007,-0.04137867,1.005395,0.1488629,-6.982761,-28.48529,-21.83381,1009.192
0.894958019,-1.431028,-1.109839,-0.8246439,-0.03950074,1.009338,0.1512557,-6.982761,-28.48529,-21.83381,1009.192
0.900033951,-1.49201,-0.9902009,-0.9461205,-0.03932728,0.9995724,0.1478967,-6.982761,-28.48529,-21.83381,1009.192
0.905109882,-1.552974,-1.108482,-0.4575667,-0.03793243,1.002995,0.1469378,-6.982761,-28.48529,-21.83381,1009.192
0.910185814,-1.675663,-0.9293749,-0.4572792,-0.03736052,0.9981144,0.1445388,-6.598192,-28.86944,-21.82527,1009.192
0.915261269,-1.674611,-0.9287723,-0.1520531,-0.03669582,0.9883782,0.1440524,-6.598192,-28.86944,-21.82527,1009.192
0.920337200,-1.73542,-0.8092858,-0.02994381,-0.03243244,0.9953117,0.1507518,-6.598192,-28.86944,-21.82527,1009.192
0.925413132,-1.610587,-0.6303105,0.1530574,-0.0391555,0.9903271,0.1488485,-6.598192,-28.86944,-21.82527,1009.192
0.930489063,-1.73328,-0.5704256,0.09199268,-0.03956128,0.9859369,0.1488467,-6.598192,-28.86944,-21.82527,1009.192
0.935564518,-1.546644,-0.5700673,0.03094714,-0.04039971,0.9786178,0.1488441,-6.598192,-28.86944,-21.82527,1009.192
0.940640450,-1.421929,-0.3317907,0.2139484,-0.03743999,0.977266,0.1574571,-6.598192,-28.86944,-21.82527,1009.193
0.945716381,-1.668445,-0.09364528,-0.03015614,-0.03598891,0.9772508,0.1526645,-6.598192,-28.86944,-21.82527,1009.193
0.950792313,-1.605554,0.0254101,-0.1522085,-0.03739279,0.9748421,0.1588923,-6.598192,-28.86944,-21.82527,1009.193
0.955867767,-1.295255,0.02543152,-0.2131198,-0.03199044,0.9719915,0.1579202,-6.598192,-28.86944,-21.82527,1009.193
0.960943699,-0.8614475,0.08490448,-0.2739928,-0.0285646,0.9710823,0.1598275,-6.982761,-28.48529,-21.83381,1009.193
0.966020107,-0.4898323,0.1443401,-0.09083831,-0.03196196,0.9705379,0.1588771,-6.982761,-28.48529,-21.83381,1009.193
0.971095562,0.005292579,0.382149,-0.02981265,-0.03208404,0.9768431,0.1555288,-6.982761,-28.48529,-21.83381,1009.193
0.976170540,0.1908748,0.5009429,-0.2128338,-0.03114717,0.9793327,0.1607964,-6.982761,-28.48529,-21.83381,1009.193
0.981246471,0.5618289,0.679039,-0.1517124,-0.03064368,0.9783621,0.1603157,-6.982761,-28.48529,-21.83381,1009.193
0.986322880,0.9325888,0.7380826,-0.0296224,-0.03069902,0.9812768,0.1593598,-6.982761,-28.48529,-21.83381,1009.193
0.991398811,1.179373,0.9160483,0.09239088,-0.03414923,0.9831305,0.1536218,-6.982761,-28.48529,-21.83381,1009.193
0.996473789,1.178632,0.5585953,0.03136425,-0.03289372,0.994891,0.1603311,-6.982761,-28.48529,-21.83381,1009.193
1.001549721,1.548985,0.9151219,0.2143461,-0.03470653,0.9875503,0.1593729,-6.982761,-28.48529,-21.83381,1009.193
1.006625652,1.671755,0.9740548,0.2752376,-0.03561345,0.9846692,0.166557,-6.213633,-28.87245,-21.82248,1009.193
1.011701584,1.547097,1.033006,0.2751221,-0.03763137,0.9880054,0.1608167,-6.213633,-28.87245,-21.82248,1009.193
1.016777039,1.731672,1.091828,0.5189195,-0.03484733,0.9948257,0.1555463,-6.213633,-28.87245,-21.82248,1009.193
1.021852970,1.668723,1.091123,0.6406073,-0.0314328,0.9938651,0.1507486,-6.213633,-28.87245,-21.82248,1009.197
1.026928902,1.729536,1.149908,0.5791979,-0.03580549,0.9943501,0.1589007,-6.213633,-28.87245,-21.82248,1009.197
1.032004833,1.604765,1.327615,0.6398218,-0.03526368,0.9909154,0.154587,-6.213633,-28.87245,-21.82248,1009.197
1.037080288,1.41819,1.207878,0.4563991,-0.04067492,0.9937254,0.1502909,-6.213633,-28.87245,-21.82248,1009.197
1.042156219,1.417261,0.9096743,0.3950863,-0.04172763,0.9991524,0.1613119,-6.213633,-28.87245,-21.82248,1009.197
1.047232151,1.354528,1.14704,0.4558259,-0.0401991,0.9942123,0.1493322,-6.213633,-28.87245,-21.82248,1009.197
1.052308083,1.106249,1.027454,0.2725763,-0.03587795,0.9982424,0.1584243,-6.213633,-28.87245,-21.82248,1009.197
1.057383537,1.105593,0.7888898,0.1503912,-0.03678069,0.9943248,0.1574661,-6.596077,-29.24562,-21.3651,1009.197
1.059921265,1.105245,0.9076198,0.2723578,-0.03691906,1.001611,0.1550763,-6.596077,-29.24562,-21.3651,1009.197
1.064997196,0.7953195,0.8475981,0.02821653,-0.03881579,0.999166,0.1574738,-6.596077,-29.24562,-21.3651,1009.197
1.070073605,0.5474308,0.6091659,0.2722073,-0.03840105,1.003069,0.1574753,-6.596077,-29.24562,-21.3651,1009.197
1.075149536,0.05225025,0.4898427,0.2110677,-0.04047594,1.009312,0.1498211,-6.596077,-29.24562,-21.3651,1009.197
1.080224514,-0.071448,0.1921277,0.2719229,-0.04290955,1.009797,0.1541373,-6.596077,-29.24562,-21.3651,1009.197
1.085300446,-0.3806735,0.07304782,0.3937275,-0.04180809,1.002481,0.1507778,-6.596077,-29.24562,-21.3651,1009.197
1.090376377,-0.5041193,-0.1054462,0.5155132,-0.04511265,0.997081,0.1517399,-6.596077,-29.24562,-21.3651,1009.197
1.095452309,-0.7511917,0.01357923,0.3322069,-0.04185294,1.005443,0.1560479,-6.596077,-29.24562,-21.3651,1009.197
1.100530624,-0.8744824,-0.2838179,0.4539545,-0.04558274,0.9960926,0.1507825,-6.596077,-29.24562,-21.3651,1009.197
1.105603695,-0.6265633,-0.4621064,0.2097375,-0.03973643,0.9962224,0.1565163,-6.598192,-28.86944,-21.82527,1009.199
1.110679626,-0.9972826,-0.2833493,0.270651,-0.0431111,0.9952534,0.1637073,-6.598192,-28.86944,-21.82527,1009.199
1.115755558,-0.934833,-0.4616381,0.1485055,-0.03485071,0.9958658,0.1641676,-6.598192,-28.86944,-21.82527,1009.199
1.120831013,-0.7486991,-0.6992851,-0.03460856,-0.03861391,0.9884744,0.1603403,-6.598192,-28.86944,-21.82527,1009.199
1.125906944,-0.8718941,-0.6393943,0.08736952,-0.03703598,0.9827035,0.167038,-6.598192,-28.86944,-21.82527,1009.199
1.130982876,-0.6858191,-0.7579144,0.2093093,-0.03356683,0.9782972,0.1574488,-6.598192,-28.86944,-21.82527,1009.199
1.136058807,-0.6235264,-0.9358677,0.08720231,-0.03119694,0.9828004,0.1684614,-6.598192,-28.86944,-21.82527,1009.199
1.141134262,-0.5612534,-0.9353545,0.02614061,-0.03060954,0.9769343,0.164625,-6.598192,-28.86944,-21.82527,1009.199
1.146210194,-0.5609397,-0.9941998,-0.03488273,-0.03258194,0.9783666,0.1646305,-6.598192,-28.86944,-21.82527,1009.199
1.151286125,-0.4987254,-1.112534,-0.2178816,-0.03212405,0.9798273,0.1636725,-6.215736,-28.87742,-22.27689,1009.199
1.156362057,-0.4365502,-1.052365,-0.3397585,-0.029213,0.9798372,0.1593555,-6.215736,-28.87742,-22.27689,1009.199
1.161437511,-0.1888674,-0.8138231,-0.5225466,-0.03159288,0.9773996,0.1636697,-6.215736,-28.87742,-22.27689,1009.199
1.166513443,-0.003202041,-1.051174,-0.4001854,-0.02588172,0.9848306,0.1689294,-6.215736,-28.87742,-22.27689,1009.199
1.171589375,0.1205431,-0.8720843,-0.5828972,-0.02781251,0.983286,0.161749,-6.215736,-28.87742,-22.27689,1009.199
1.176665306,0.1823098,-1.109399,-0.6435188,-0.02976861,0.983737,0.1607959,-6.215736,-28.87742,-22.27689,1009.199
1.181740761,0.2440572,-0.9302724,-0.7651284,-0.02928627,0.9837258,0.1584002,-6.215736,-28.87742,-22.27689,1009.199
1.186816692,0.42947,-1.048666,-0.8866615,-0.02704161,0.9939919,0.1588803,-6.215736,-28.87742,-22.27689,1009.199
1.191892624,0.3673772,-0.7505997,-0.6421152,-0.02890413,0.9895914,0.1603186,-6.215736,-28.87742,-22.27689,1009.199
1.196968555,0.1197378,-0.928539,-0.9466888,-0.02650883,0.9915715,0.1598354,-6.215736,-28.87742,-22.27689,1009.199
1.202043533,0.3670712,-0.6900373,-0.8240803,-0.02518967,0.998872,0.1564844,-6.598192,-28.86944,-21.82527,1009.199
1.207119942,0.05758957,-0.3327076,-0.6405994,-0.0240761,0.9916109,0.1603088,-6.598192,-28.86944,-21.82527,1009.199
1.212195873,0.304962,-0.5109093,-0.7011464,-0.02467635,0.9968908,0.1512138,-6.598192,-28.86944,-21.82527,1009.199
1.217276096,0.05732294,-0.5701146,-0.4567165,-0.02175892,0.9974576,0.1559967,-6.598192,-28.86944,-21.82527,1009.199
1.222346783,0.05728693,-0.4507786,-0.3344349,-0.02752792,0.9934573,0.1536129,-6.598192,-28.86944,-21.82527,1009.199
1.224884987,0.1191308,-0.3911481,-0.2733229,-0.02164902,0.9916247,0.1574296,-6.598192,-28.86944,-21.82527,1009.199
1.229960918,-0.1283526,-0.1529466,-0.2731321,-0.03253918,1.001687,0.1565031,-6.598192,-28.86944,-21.82527,1009.199
1.235040188,-0.004587137,-0.3312799,-0.2119919,-0.02915225,1.001656,0.1459589,-6.598192,-28.86944,-21.82527,1009.199
1.240112782,-0.1901115,-0.3310531,-0.08988322,-0.02563612,0.9964079,0.1536104,-6.598192,-28.86944,-21.82527,1009.199
1.245188236,-0.313677,-0.2118673,0.09321316,-0.02656653,0.9939476,0.1521742,-6.598192,-28.86944,-21.82527,1009.199
1.250264168,-0.3134993,-0.2117342,0.0930971,-0.02904001,0.9963615,0.1540971,-6.598204,-28.48829,-21.83102,1009.199
1.255340099,-0.4988297,-0.2710714,0.276021,-0.0280461,0.9954165,0.1560099,-6.598204,-28.48829,-21.83102,1009.199
1.260416031,-0.5604171,-0.1519606,0.2148024,-0.02659017,0.9954233,0.1540909,-6.598204,-28.48829,-21.83102,1009.199
1.265491962,-0.6837304,-0.03290598,0.2146099,-0.02614768,0.9973417,0.1493018,-6.598204,-28.48829,-21.83102,1009.199
1.270567417,-0.6214196,-0.09237424,0.3974959,-0.03184681,0.9904931,0.1564946,-6.598204,-28.48829,-21.83102,1009.199
1.275647163,-0.8065759,-0.1518425,0.1532568,-0.03229979,0.988527,0.1550576,-6.598204,-28.48829,-21.83102,1009.199
1.280719280,-0.6823649,0.02668229,0.2751169,-0.02851288,0.9939153,0.1516998,-6.598204,-28.48829,-21.83102,1009.199
1.285794735,-0.5582125,0.02668422,0.213918,-0.03187037,0.9914414,0.1531427,-6.598204,-28.48829,-21.83102,1009.199
1.290870667,-0.6197431,0.02668614,0.2748097,-0.02747419,0.9905354,0.153611,-6.598204,-28.48829,-21.83102,1009.199
1.295946598,-0.6193538,-0.0922711,0.2745795,-0.03619982,0.9889567,0.1550668,-6.598204,-28.48829,-21.83102,1009.199
1.301022530,-0.7426301,-0.09221314,0.2134384,-0.0337345,0.9870335,0.1536232,-7.365217,-28.47731,-21.38218,1009.199
1.306097508,-0.6184787,-0.270566,0.2743112,-0.03653638,0.9806598,0.1536257,-7.365217,-28.47731,-21.38218,1009.201
1.311173439,-0.432524,-0.4488254,0.2131128,-0.03373611,0.9870262,0.1526654,-7.365217,-28.47731,-21.38218,1009.201
1.316249847,-0.494153,-0.5080324,0.1519912,-0.03568488,0.9869829,0.1507541,-7.365217,-28.47731,-21.38218,1009.201
1.321325779,-0.3082959,-0.3887167,0.09090798,-0.03183777,0.9894787,0.1512257,-7.365217,-28.47731,-21.38218,1009.201
1.326400757,-0.431787,-0.5074316,0.02986312,-0.03485299,0.9948,0.1521938,-7.365217,-28.47731,-21.38218,1009.201
1.331476688,-0.4314964,-0.7450125,0.02990186,-0.03481966,0.9933684,0.1560242,-7.365217,-28.47731,-21.38218,1009.201
1.336555481,-0.4312642,-0.8040147,-0.03108551,-0.03579962,0.9927937,0.1464477,-7.365217,-28.47731,-21.38218,1009.201
1.341628552,-0.2453688,-0.7440394,-0.09205374,-0.03670001,0.9894146,0.1521948,-7.365217,-28.47731,-21.38218,1009.201
1.346704006,-0.3689383,-1.040961,-0.153022,-0.03640412,0.9996374,0.1507636,-6.598181,-29.2506,-21.81951,1009.205
1.351779938,-0.2449829,-0.8618585,-0.1529258,-0.04206162,0.9898118,0.1507705,-6.598181,-29.2506,-21.81951,1009.205
1.356855869,-0.1211247,-0.9802389,-0.03083511,-0.03534745,0.9947561,0.1474057,-6.598181,-29.2506,-21.81951,1009.205
1.361931801,-0.1210291,-0.9796231,-0.09178433,-0.03718463,0.98836,0.1426167,-6.598181,-29.2506,-21.81951,1009.205
1.367007256,-0.1209531,-1.157475,-0.1527336,-0.03336938,0.9933495,0.1507527,-6.598181,-29.2506,-21.81951,1009.205
1.372083187,-0.2446008,-0.9782618,-0.03060464,-0.03676916,0.9927941,0.1483656,-6.598181,-29.2506,-21.81951,1009.205
1.377159119,-0.1826047,-0.977666,-0.0916115,-0.02942538,0.9904811,0.150263,-6.598181,-29.2506,-21.81951,1009.205
1.382235050,-0.2443324,-1.1555,-0.1525225,-0.03042832,0.9924405,0.1536189,-6.598181,-29.2506,-21.81951,1009.205
1.387310505,-0.1204552,-0.7978777,-0.0914198,-0.03233311,0.9899586,0.1512272,-6.598181,-29.2506,-21.81951,1009.205
1.392386437,-0.244045,-1.035276,-0.1523693,-0.03271607,0.9840893,0.1488298,-6.598181,-29.2506,-21.81951,1009.205
1.394924164,-0.2439683,-0.9159731,0.03069934,-0.03340837,0.9947553,0.1435698,-6.215736,-28.87742,-22.27689,1009.205
1.400000572,-0.4293229,-0.7369495,0.0916678,-0.03532307,0.9938115,0.1512364,-6.215736,-28.87742,-22.27689,1009.205
1.405076504,-0.5527769,-0.9149534,0.09166771,-0.0324171,0.9953815,0.1598514,-6.215736,-28.87742,-22.27689,1009.205
1.410151482,-0.5524297,-0.6764789,-0.03036537,-0.02607853,0.9939621,0.1531309,-6.215736,-28.87742,-22.27689,1009.205
1.415227413,-0.5520826,-0.3786653,-0.09133404,-0.02649408,0.9900554,0.1526506,-6.215736,-28.87742,-22.27689,1009.205
1.420303345,-0.3662279,-0.3189011,0.3966828,-0.02603948,0.9920289,0.1550454,-6.215736,-28.87742,-22.27689,1009.205
1.425379276,-0.4896438,-0.2592118,0.3964336,-0.02800455,0.9929669,0.1540926,-6.215736,-28.87742,-22.27689,1009.205
1.430454731,-0.3037701,-0.1400898,0.4571531,-0.02554164,0.9910327,0.1512122,-6.215736,-28.87742,-22.27689,1009.205
1.435530663,-0.3653828,0.09787918,0.6399059,-0.02264455,0.9925623,0.154559,-6.215736,-28.87742,-22.27689,1009.205
1.440606594,-0.488877,0.1573066,0.6395039,-0.0283436,0.9851863,0.1564832,-6.215736,-28.87742,-22.27689,1009.205
1.445682526,-0.1793383,0.276167,0.8830914,-0.02645099,0.9881405,0.1569596,-6.213644,-28.49129,-21.82824,1009.205
1.450757980,-0.3028911,0.6329271,0.6995543,-0.02346749,0.9842582,0.1531189,-6.213644,-28.49129,-21.82824,1009.205
1.455835343,0.006530799,0.8109776,0.9430658,-0.02683078,0.9828133,0.1617464,-6.213644,-28.49129,-21.82824,1009.205
1.460909844,-0.1172165,0.7509605,0.75951,-0.02830865,0.9837621,0.1612715,-6.213644,-28.49129,-21.82824,1009.205
1.465985775,-0.797565,0.9884071,0.8200015,-0.02632252,0.9823923,0.1694078,-6.213644,-28.49129,-21.82824,1009.205
1.471061230,-0.3021885,1.344701,0.7584986,-0.02920236,0.9788302,0.1550445,-6.213644,-28.49129,-21.82824,1009.205
1.476137161,0.1928185,1.3438,0.6970344,-0.03273493,0.9861143,0.1588885,-6.213644,-28.49129,-21.82824,1009.205
1.481216431,0.2545204,1.699852,0.6966156,-0.03023716,0.9832833,0.1660649,-6.213644,-28.49129,-21.82824,1009.205
1.486289024,0.06879432,1.877251,0.5741642,-0.03124568,0.9846895,0.1607999,-6.213644,-28.49129,-21.82824,1009.205
1.491364479,0.2542784,2.054501,0.5737843,-0.03080723,0.9865894,0.1536162,-6.980646,-28.86147,-21.37364,1009.205
1.496440411,0.4396848,2.231696,0.512417,-0.02780766,0.983308,0.1646225,-6.980646,-28.86147,-21.37364,1009.205
1.501516342,0.5012704,2.408705,0.4511456,-0.02833471,0.9852268,0.1617514,-6.980646,-28.86147,-21.37364,1009.205
1.506592274,0.5627785,2.823521,0.4509197,-0.03075041,0.9847371,0.166067,-6.980646,-28.86147,-21.37364,1009.205
1.511667729,0.5624444,2.762314,0.4505981,-0.02598339,0.9896454,0.1617487,-6.980646,-28.86147,-21.37364,1009.205
1.516743660,0.5002097,3.176945,0.3283587,-0.02640062,0.9862587,0.165579,-6.980646,-28.86147,-21.37364,1009.205
1.521819592,0.06717674,3.295923,0.4503725,-0.02555317,0.9925634,0.1603128,-6.980646,-28.86147,-21.37364,1009.205
1.526895523,0.8095191,3.355412,0.5723863,-0.02641274,0.9862036,0.1583951,-6.980646,-28.86147,-21.37364,1009.205
1.531970501,1.613723,3.712346,0.4503725,-0.03233407,0.9910097,0.1612853,-6.980646,-28.86147,-21.37364,1009.205
1.537046909,1.118828,3.950301,0.5113794,-0.03772343,0.9933916,0.1646516,-6.980646,-28.86147,-21.37364,1009.205
1.542122841,1.118828,4.06928,0.6333933,-0.03702372,0.9817038,0.1636849,-6.980646,-28.86147,-21.37364,1009.205
1.547198773,1.18069,3.890812,0.6944002,-0.03093923,0.9944327,0.1603263,-6.980646,-28.86147,-21.37364,1009.205
1.552273750,1.118828,4.128768,0.4503725,-0.0269685,0.9911581,0.1703725,-6.980646,-28.86147,-21.37364,1009.205
1.557349682,0.7476572,4.247746,0.7554071,-0.03464714,0.9846541,0.1627234,-6.980646,-28.86147,-21.37364,1009.205
1.562425614,1.056967,4.307235,0.4503725,-0.03317653,0.9836722,0.158888,-6.980646,-28.86147,-21.37364,1009.205
1.564963818,1.366276,4.247746,0.4503725,-0.03623168,0.9914505,0.1627313,-6.980646,-28.86147,-21.37364,1009.205
1.570039749,1.428138,4.247746,0.3283587,-0.03976499,0.9982035,0.1608279,-6.980646,-28.86147,-21.37364,1009.205
1.575115204,1.18069,4.307235,0.4503725,-0.03873937,0.9958196,0.1656133,-6.980646,-28.86147,-21.37364,1009.205
1.580191136,0.7476572,4.247746,0.4503725,-0.04416763,0.9990799,0.1565282,-6.980646,-28.86147,-21.37364,1009.205
1.585267067,0.6857953,4.06928,0.4503725,-0.0548104,0.9965464,0.164214,-6.980646,-28.86147,-21.37364,1009.205
1.590342999,0.9332427,4.128768,0.2063449,-0.04613439,1.000538,0.1598861,-5.829062,-29.2566,-21.81394,1009.205
1.595418453,1.056967,3.831323,0.3283587,-0.04510627,0.9976378,0.1608398,-5.829062,-29.2566,-21.81394,1009.205
1.600494385,0.7476572,3.831323,0.5113794,-0.04647506,0.9927501,0.1613189,-5.829062,-29.2566,-21.81394,1009.205
1.605570316,0.8713809,3.652857,0.3283587,-0.03926642,0.9977384,0.1627421,-5.829062,-29.2566,-21.81394,1009.205
1.610646248,0.8095191,3.414901,0.4503725,-0.04262464,0.9947333,0.1584377,-5.829062,-29.2566,-21.81394,1009.205
1.615721703,0.7476572,3.176945,0.6333933,-0.04744136,0.9927652,0.1651525,-5.829062,-29.2566,-21.81394,1009.205
1.620797634,0.6857953,2.701034,0.6944002,-0.04400246,0.99086,0.1641856,-5.829062,-29.2566,-21.81394,1009.205
1.625873566,0.376486,2.582056,0.5113794,-0.03930966,1.000708,0.1689701,-5.829062,-29.2566,-21.81394,1009.205
1.630949497,0.5002097,2.165633,0.3283587,-0.04303872,0.9918887,0.1694522,-5.829062,-29.2566,-21.81394,1009.205
1.636024475,0.2527623,1.689722,0.3893656,-0.03561918,0.9851709,0.1684731,-6.598181,-29.2506,-21.81951,1009.205
1.641100407,-0.3039944,1.570744,0.816414,-0.03852604,0.9841247,0.1646477,-6.598181,-29.2506,-21.81951,1009.205
1.646176815,0.1290386,1.273299,0.2063449,-0.05030762,0.9903204,0.1694679,-6.598181,-29.2506,-21.81951,1009.205
1.651252747,0.3146242,0.9758547,0.3283587,-0.05176178,0.9892662,0.1618078,-6.598181,-29.2506,-21.81951,1009.205
1.656327725,0.8713809,0.5594321,0.145338,-0.05607912,0.9868367,0.1709158,-6.598181,-29.2506,-21.81951,1009.205
1.661403656,0.6239334,0.3214763,-0.3427173,-0.04819199,0.9816237,0.1747258,-6.598181,-29.2506,-21.81951,1009.205
1.666479588,0.9951046,0.2619874,0.02332413,-0.02923033,0.9823971,0.1756405,-6.598181,-29.2506,-21.81951,1009.205
1.671555519,0.9332427,0.2024985,0.2673518,-0.01699745,0.9786873,0.1765679,-6.598181,-29.2506,-21.81951,1009.205
1.676630974,1.18069,0.1430096,0.6944002,-0.0235191,0.9893007,0.1756316,-6.598181,-29.2506,-21.81951,1009.205
1.681707859,1.18069,-0.273413,0.02332413,-0.03615534,0.9886314,0.1761393,-6.598181,-29.2506,-21.81951,1009.205
1.686782837,1.118828,-0.1544351,-0.1596966,-0.03877405,0.9725363,0.1785299,-6.598181,-29.2506,-21.81951,1009.205
1.691858769,1.366276,-0.273413,0.2063449,-0.03437208,0.9706013,0.1718137,-6.598181,-29.2506,-21.81951,1009.205
1.696934223,1.49,-0.5113687,0.2063449,-0.02480809,0.9800265,0.1756289,-6.598181,-29.2506,-21.81951,1009.205
1.702010155,1.861171,-0.273413,0.08433105,-0.0240405,0.9912452,0.176113,-6.598181,-29.2506,-21.81951,1009.205
1.707086086,1.984895,-0.3329019,0.2063449,-0.01185005,0.9905089,0.1837472,-6.598181,-29.2506,-21.81951,1009.205
1.712162018,1.551861,-0.4518798,0.02332413,-0.02449194,0.9898137,0.1809024,-6.598181,-29.2506,-21.81951,1009.205
1.717237473,1.737447,-0.3923909,-0.09868971,-0.02190035,0.980549,0.1746646,-6.598181,-29.2506,-21.81951,1009.207
1.722313404,2.356066,-0.273413,-0.09868971,-0.02189301,0.9800547,0.1737065,-6.598181,-29.2506,-21.81951,1009.207
1.727389336,2.417928,-0.4518798,0.2673518,-0.02340186,0.9829736,0.1761064,-6.598181,-29.2506,-21.81951,1009.207
1.729927540,2.356066,-0.2139241,0.145338,-0.01996949,0.9815664,0.1765765,-6.598181,-29.2506,-21.81951,1009.207
1.735003472,2.294204,-0.5113687,-0.09868971,-0.03369977,0.9871915,0.174217,-6.211517,-29.24862,-21.36231,1009.207
1.740078449,2.17048,-0.7493244,-0.6477519,-0.04177943,0.9768469,0.1747081,-6.211517,-29.24862,-21.36231,1009.207
1.745154381,2.417928,-0.8088134,-0.586745,-0.04089284,0.980691,0.1660878,-6.211517,-29.24862,-21.36231,1009.207
1.750230313,2.665375,-0.8088134,-0.6477519,-0.03115546,0.9808781,0.1718126,-6.211517,-29.24862,-21.36231,1009.207
1.755306244,2.665375,-0.9872802,-0.4647312,-0.03173471,0.9862534,0.1751698,-6.211517,-29.24862,-21.36231,1009.207
1.760381699,2.603513,-0.8683023,-0.9527865,-0.02249582,0.9863784,0.1737118,-6.211517,-29.24862,-21.36231,1009.207
1.765457630,2.541651,-0.8088134,-0.7087589,-0.01906345,0.9849712,0.1741819,-6.211517,-29.24862,-21.36231,1009.207
1.770533562,2.294204,-0.8088134,-0.7697658,-0.01576374,0.9903488,0.1703463,-6.211517,-29.24862,-21.36231,1009.207
1.775609493,2.294204,-0.6898355,-0.7697658,-0.02257312,0.9902486,0.1703619,-6.211517,-29.24862,-21.36231,1009.207
1.780684948,2.046757,-0.8088134,-0.9527865,-0.03099311,0.9984094,0.1708652,-6.211517,-29.24862,-21.36231,1009.207
1.785760879,1.861171,-0.5113687,-0.7087589,-0.02754848,0.9960025,0.1679823,-6.211517,-29.24862,-21.36231,1009.207
1.790836811,2.046757,-0.8088134,-0.6477519,-0.02799654,0.993531,0.1641504,-6.211517,-29.24862,-21.36231,1009.207
1.795912743,2.108618,-0.5708576,-0.7087589,-0.0261112,0.9964522,0.1603164,-6.211517,-29.24862,-21.36231,1009.209
1.800988197,1.737447,-0.5708576,-0.8917796,-0.02710592,0.9973935,0.1579247,-6.211517,-29.24862,-21.36231,1009.209
1.806064129,1.861171,-0.5113687,-0.6477519,-0.03200875,0.9987278,0.1507529,-6.211517,-29.24862,-21.36231,1009.209
1.811141491,1.366276,-0.4518798,-0.586745,-0.02913118,1.001224,0.1531425,-6.211517,-29.24862,-21.36231,1009.209
1.816215992,1.551861,-0.4518798,-0.3427173,-0.02907099,0.9983315,0.1569719,-6.211517,-29.24862,-21.36231,1009.209
1.821291447,1.242552,-0.4518798,-0.4037243,-0.03450425,1.002625,0.1555503,-6.211517,-29.24862,-21.36231,1009.209
1.826367378,0.8713809,-0.4518798,-0.5257381,-0.03544515,1.000117,0.1478881,-6.211517,-29.24862,-21.36231,1009.209
1.831443310,0.5620716,-0.7493244,-0.6477519,-0.03778172,0.994182,0.140706,-6.982738,-29.2476,-21.8223,1009.209
1.836519241,0.4383479,-0.5113687,-0.4037243,-0.03638364,0.9976197,0.1416627,-6.982738,-29.2476,-21.8223,1009.209
1.841594696,0.3146242,-0.5708576,-0.2817104,-0.03588749,0.9971436,0.1421402,-6.982738,-29.2476,-21.8223,1009.209
1.846670628,-0.05654699,-0.8088134,-0.4647312,-0.037463,1.002925,0.1368793,-6.982738,-29.2476,-21.8223,1009.209
1.851746559,-0.6133038,-0.8088134,-0.2817104,-0.0354174,0.998132,0.1430976,-6.982738,-29.2476,-21.8223,1009.209
1.856822491,-0.984475,-0.9277912,-0.4647312,-0.04086447,1.00289,0.1388028,-6.982738,-29.2476,-21.8223,1009.209
1.861901760,-0.984475,-1.046769,-0.7087589,-0.04286197,1.004736,0.12923,-6.982738,-29.2476,-21.8223,1009.209
1.866973877,-1.231922,-0.8683023,-0.7087589,-0.0408547,1.002407,0.1392814,-6.982738,-29.2476,-21.8223,1009.209
1.872049808,-1.293784,-0.9872802,-0.8307727,-0.0409011,1.004834,0.1383251,-6.982738,-29.2476,-21.8223,1009.209
1.877125740,-1.47937,-0.8683023,-0.8917796,-0.04729486,1.008114,0.1335526,-6.982738,-29.2476,-21.8223,1009.209
1.882200718,-1.788679,-0.9277912,-0.7697658,-0.03749882,1.004873,0.1368805,-6.211517,-29.24862,-21.36231,1009.209
1.887276649,-1.974265,-0.9277912,-0.7087589,-0.03460078,1.005352,0.1301692,-6.211517,-29.24862,-21.36231,1009.209
1.892352581,-2.345436,-0.8683023,-0.8917796,-0.03696597,1.001925,0.1325672,-6.211517,-29.24862,-21.36231,1009.209
1.897428989,-2.531021,-0.8683023,-0.8307727,-0.03741572,0.9999742,0.1330459,-6.211517,-29.24862,-21.36231,1009.209
1.899966717,-2.592883,-0.8683023,-0.8307727,-0.04035114,1.000909,0.1335322,-6.211517,-29.24862,-21.36231,1009.209
1.905047417,-2.531021,-0.8683023,-0.8917796,-0.03553699,1.003921,0.1359176,-6.211517,-29.24862,-21.36231,1009.209
1.910118103,-2.592883,-0.5708576,-0.8917796,-0.03648201,1.001922,0.1311293,-6.211517,-29.24862,-21.36231,1009.209
1.915194035,-2.407298,-0.6303466,-0.9527865,-0.0383454,0.998045,0.1373572,-6.211517,-29.24862,-21.36231,1009.209
1.920269966,-2.592883,-0.5708576,-0.586745,-0.03151561,0.9966547,0.1335092,-6.211517,-29.24862,-21.36231,1009.209
1.925345421,-2.531021,-0.6898355,-0.8307727,-0.03582789,0.9926651,0.1296853,-6.211517,-29.24862,-21.36231,1009.209
1.930421352,-2.407298,-0.5113687,-0.4037243,-0.03822076,0.9906961,0.1316053,-6.598204,-28.48829,-21.83102,1009.209
1.935502052,-2.097988,-0.4518798,-0.5257381,-0.04359616,0.9915583,0.1273079,-6.598204,-28.48829,-21.83102,1009.209
1.940573215,-1.850541,-0.3329019,-0.3427173,-0.04267316,0.9950402,0.1349707,-6.598204,-28.48829,-21.83102,1009.209
1.945648670,-1.850541,-0.3923909,-0.3427173,-0.04071207,0.9935565,0.1282603,-6.598204,-28.48829,-21.83102,1009.209
1.950724602,-1.664955,-0.5708576,-0.2817104,-0.04107879,0.9872332,0.130173,-6.598204,-28.48829,-21.83102,1009.209
1.955800533,-1.231922,-0.5113687,-0.4037243,-0.03535779,0.9936536,0.1306427,-6.598204,-28.48829,-21.83102,1009.209
1.960876465,-1.108199,-0.4518798,-0.4037243,-0.04303894,0.9876659,0.1268252,-6.598204,-28.48829,-21.83102,1009.209
1.965951443,-0.9226131,-0.5113687,-0.5257381,-0.03864364,0.9872838,0.1320831,-6.598204,-28.48829,-21.83102,1009.209
1.971027374,-0.8607512,-0.273413,-0.1596966,-0.03776689,0.9921386,0.1282527,-6.598204,-28.48829,-21.83102,1009.209
1.976106167,-0.6751657,-0.4518798,-0.2817104,-0.03577172,0.9897543,0.1311201,-5.831177,-28.88042,-22.27411,1009.209
1.981179714,-0.7370275,-0.2139241,-0.1596966,-0.03491861,0.9960847,0.1292064,-5.831177,-28.88042,-22.27411,1009.209
1.986254692,-0.7988893,-0.09494619,-0.1596966,-0.03782481,0.9960968,0.136397,-5.831177,-28.88042,-22.27411,1009.209
1.991330624,-0.8607512,-0.273413,-0.09868971,-0.03634686,0.9946206,0.1316034,-5.831177,-28.88042,-22.27411,1009.209
1.996406555,-1.108199,0.08352062,0.08433105,-0.03723499,0.9902418,0.1339974,-5.831177,-28.88042,-22.27411,1009.209
2.001482487,-0.7988893,0.02403168,-0.03768278,-0.03775154,0.9922083,0.1373522,-5.831177,-28.88042,-22.27411,1009.209
2.006557941,-0.8607512,-0.03545725,0.08433105,-0.03525605,0.9883115,0.1325548,-5.831177,-28.88042,-22.27411,1009.209
2.011633873,-0.5514419,-0.09494619,0.08433105,-0.03628828,0.9917208,0.134475,-5.831177,-28.88042,-22.27411,1009.209
2.016709805,-0.5514419,-0.1544351,0.02332413,-0.03623455,0.9887989,0.1344731,-5.831177,-28.88042,-22.27411,1009.209
2.021790504,-0.3039944,0.2024985,0.3283587,-0.03966779,0.9907297,0.1387925,-5.831177,-28.88042,-22.27411,1009.209
2.026861191,-0.3039944,0.02403168,0.2063449,-0.03491215,0.9961141,0.1330378,-6.600296,-28.87442,-22.27968,1009.209
2.031937122,-0.05654699,0.02403168,0.4503725,-0.03917657,0.990759,0.1416649,-6.600296,-28.87442,-22.27968,1009.209
2.037017345,-0.3039944,0.08352062,0.2673518,-0.04020307,0.9936665,0.1416691,-6.600296,-28.87442,-22.27968,1009.209
2.042088985,-0.4277182,0.02403168,0.5723863,-0.03916027,0.9897777,0.1407064,-6.600296,-28.87442,-22.27968,1009.209
2.047164440,-0.3039944,0.3809653,0.6944002,-0.03573193,0.9883521,0.138782,-6.600296,-28.87442,-22.27968,1009.209
2.052240372,-0.05654699,0.02403168,0.4503725,-0.03769788,0.9898138,0.1426188,-6.600296,-28.87442,-22.27968,1009.209
2.057316303,0.1290386,0.1430096,0.3893656,-0.03713985,0.985925,0.1426151,-6.600296,-28.87442,-22.27968,1009.209
2.062392235,0.06717674,0.08352062,0.5113794,-0.03391024,0.9957332,0.1450084,-6.600296,-28.87442,-22.27968,1009.209
2.064930439,0.06717674,0.1430096,0.4503725,-0.03283984,0.9909143,0.1497922,-6.600296,-28.87442,-22.27968,1009.209
2.070005417,0.1290386,-0.03545725,0.6944002,-0.03669993,0.9888872,0.1469262,-6.600296,-28.87442,-22.27968,1009.209
2.075081348,-0.1184088,0.2024985,0.6333933,-0.0372206,0.9913628,0.153155,-6.596077,-29.24562,-21.3651,1009.209
2.080157280,0.005314875,0.3214763,0.816414,-0.0362471,0.9919081,0.1589002,-6.596077,-29.24562,-21.3651,1009.209
2.085233212,-0.3039944,0.2024985,0.7554071,-0.03525231,0.9904394,0.1560234,-6.596077,-29.24562,-21.3651,1009.209
2.090308666,-0.1802707,0.3809653,0.6944002,-0.03715865,0.9874227,0.1474053,-6.596077,-29.24562,-21.3651,1009.209
2.095384598,-0.05654699,0.3214763,0.7554071,-0.03617868,0.9879975,0.1569819,-6.596077,-29.24562,-21.3651,1009.209
2.100460529,-0.1184088,0.2024985,0.6333933,-0.03632117,0.9957929,0.157466,-6.596077,-29.24562,-21.3651,1009.209
2.105536461,-0.3039944,0.2619874,0.6944002,-0.0328725,0.9934044,0.1569776,-6.596077,-29.24562,-21.3651,1009.209
2.110611916,-0.1184088,0.1430096,0.6944002,-0.03723044,0.9923734,0.1579449,-6.596077,-29.24562,-21.3651,1009.209
2.115687847,-0.1184088,0.2024985,0.816414,-0.04214311,0.9947184,0.155563,-6.596077,-29.24562,-21.3651,1009.209
2.120763779,-0.3658563,0.08352062,0.6333933,-0.03966163,0.9928686,0.1636979,-5.829073,-28.87545,-21.81969,1009.209
2.125839710,-0.3039944,0.08352062,0.5723863,-0.03869774,0.9928426,0.1584275,-5.829073,-28.87545,-21.81969,1009.209
2.130919933,-0.6133038,-0.03545725,0.6944002,-0.04452056,0.9922917,0.1613141,-5.829073,-28.87545,-21.81969,1009.209
2.135991097,-0.4277182,0.2024985,0.5113794,-0.0386929,0.9928646,0.161301,-5.829073,-28.87545,-21.81969,1009.209
2.141067028,-0.4277182,-0.03545725,0.3283587,-0.04059769,0.9903827,0.1589093,-5.829073,-28.87545,-21.81969,1009.209
2.146142960,-0.2421326,-0.03545725,0.5113794,-0.0357892,0.9933688,0.1579422,-5.829073,-28.87545,-21.81969,1009.209
2.151218414,-0.48958,-0.03545725,0.3893656,-0.04065385,0.9932935,0.1574744,-5.829073,-28.87545,-21.81969,1009.209
2.156294346,-0.3039944,-0.03545725,0.5113794,-0.02900918,0.9954463,0.1617593,-5.829073,-28.87545,-21.81969,1009.209
2.161372662,-0.3658563,-0.1544351,0.5113794,-0.03626097,0.9929004,0.1612955,-5.829073,-28.87545,-21.81969,1009.209
2.166446209,-0.48958,-0.03545725,0.2063449,-0.03571924,0.989993,0.1622503,-5.829073,-28.87545,-21.81969,1009.208
2.171521664,-0.48958,0.02403168,0.4503725,-0.03775192,0.9948452,0.1636947,-6.213633,-28.87245,-21.82248,1009.208
2.176597595,-0.984475,-0.09494619,0.4503725,-0.03585857,0.9983305,0.1699185,-6.213633,-28.87245,-21.82248,1009.208
2.181673527,-1.293784,-0.03545725,0.6333933,-0.03857074,0.9860321,0.1593808,-6.213633,-28.87245,-21.82248,1009.208
2.186749458,-0.48958,-0.09494619,0.816414,-0.03913377,0.9909536,0.167048,-6.213633,-28.87245,-21.82248,1009.208
2.191824436,-0.8607512,0.08352062,0.6333933,-0.03688096,1.000729,0.1670488,-6.213633,-28.87245,-21.82248,1009.208
2.196900845,-1.046337,-0.03545725,0.6944002,-0.03815285,0.9904773,0.1665665,-6.213633,-28.87245,-21.82248,1009.208
2.201977253,-1.046337,-0.09494619,0.5113794,-0.03571197,0.9900261,0.1665606,-6.213633,-28.87245,-21.82248,1009.208
2.207052708,-0.8607512,-0.03545725,0.5113794,-0.04067265,0.9947913,0.1622646,-6.213633,-28.87245,-21.82248,1009.208
2.212127686,-0.8607512,-0.2139241,0.3893656,-0.0336605,0.9836761,0.1603259,-6.213633,-28.87245,-21.82248,1009.208
2.217203617,-0.7370275,-0.2139241,0.5723863,-0.03616899,0.9880415,0.162729,-6.596088,-28.86447,-21.37085,1009.208
2.222280026,-0.7370275,-0.2139241,0.145338,-0.03891067,0.9787753,0.166561,-6.596088,-28.86447,-21.37085,1009.208
2.227355957,-0.6751657,-0.3923909,0.145338,-0.03620078,0.9900079,0.1651249,-6.596088,-28.86447,-21.37085,1009.208
2.229893684,-0.7370275,-0.2139241,0.4503725,-0.03717443,0.9905173,0.1699167,-6.596088,-28.86447,-21.37085,1009.208
2.234969139,-0.7988893,-0.1544351,0.3283587,-0.03411679,0.9822227,0.1622418,-6.596088,-28.86447,-21.37085,1009.208
2.240045071,-0.48958,-0.3329019,0.3283587,-0.03811864,0.988522,0.1656073,-6.596088,-28.86447,-21.37085,1009.208
2.245121002,-0.1802707,-0.2139241,0.08433105,-0.03279374,0.9905964,0.1718224,-6.596088,-28.86447,-21.37085,1009.208
2.250196934,-0.2421326,-0.09494619,0.3893656,-0.03077566,0.9862053,0.1670258,-6.596088,-28.86447,-21.37085,1009.208
2.255272389,-0.05654699,-0.03545725,0.2673518,-0.03617149,0.9885579,0.1665607,-6.596088,-28.86447,-21.37085,1009.208
2.260348320,0.06717674,-0.273413,0.3283587,-0.03122703,0.9842466,0.1665467,-6.596088,-28.86447,-21.37085,1009.208
2.265429020,0.2527623,-0.03545725,0.2063449,-0.02840313,0.9891373,0.1636697,-6.596077,-29.24562,-21.3651,1009.208
2.270500183,0.06717674,-0.03545725,0.2673518,-0.03608193,0.9836881,0.1665575,-6.596077,-29.24562,-21.3651,1009.208
2.275575638,0.06717674,-0.09494619,0.3893656,-0.0341714,0.9856683,0.1670333,-6.596077,-29.24562,-21.3651,1009.208
2.280651569,0.1909005,-0.273413,0.145338,-0.03753946,0.9836739,0.1675187,-6.596077,-29.24562,-21.3651,1009.208
2.285727501,0.1290386,-0.03545725,0.02332413,-0.03173456,0.9851987,0.1646328,-6.596077,-29.24562,-21.3651,1009.208
2.290803433,0.06717674,-0.2139241,0.145338,-0.03526383,0.9919701,0.165124,-6.596077,-29.24562,-21.3651,1009.206
2.295878410,0.6239334,0.08352062,0.02332413,-0.03070717,0.9817674,0.159839,-6.596077,-29.24562,-21.3651,1009.206
2.300954342,0.6857953,-0.09494619,0.2673518,-0.02988101,0.9900862,0.1631947,-6.596077,-29.24562,-21.3651,1009.206
2.306030750,0.9332427,0.02403168,0.2063449,-0.03519299,0.9880705,0.1646425,-6.596077,-29.24562,-21.3651,1009.206
2.311106682,0.5620716,-0.03545725,0.145338,-0.02829977,0.9838025,0.1665397,-6.596077,-29.24562,-21.3651,1009.206
2.316182613,0.376486,-0.03545725,0.02332413,-0.03043493,0.9934658,0.1603245,-6.211529,-28.86747,-21.36807,1009.206
2.321263313,0.4383479,-0.2139241,0.08433105,-0.02976054,0.9837737,0.1655852,-6.211529,-28.86747,-21.36807,1009.206
2.326333523,0.2527623,-0.2139241,0.08433105,-0.02885362,0.9866548,0.158401,-6.211529,-28.86747,-21.36807,1009.206
2.331409454,0.4383479,-0.2139241,0.02332413,-0.03079673,0.9866372,0.1598422,-6.211529,-28.86747,-21.36807,1009.206
2.336484909,0.4383479,-0.1544351,-0.03768278,-0.02992167,0.9920121,0.1603225,-6.211529,-28.86747,-21.36807,1009.206
2.341560841,0.4383479,-0.09494619,0.08433105,-0.02946054,0.9934875,0.1612802,-6.211529,-28.86747,-21.36807,1009.206
2.346636772,0.5620716,-0.1544351,-0.03768278,-0.03242114,0.9953631,0.1574567,-6.211529,-28.86747,-21.36807,1009.206
2.351712704,0.5620716,-0.09494619,0.02332413,-0.03334347,0.9929397,0.1608098,-6.211529,-28.86747,-21.36807,1009.206
2.356791496,0.5620716,0.02403168,0.2673518,-0.0324643,0.9978055,0.1584162,-6.211529,-28.86747,-21.36807,1009.206
2.361864090,0.5002097,-0.273413,0.145338,-0.02905153,0.9978923,0.1631977,-6.598192,-28.86944,-21.82527,1009.206
2.366940022,0.5002097,-0.273413,0.08433105,-0.03040644,0.9920123,0.1612814,-6.598192,-28.86944,-21.82527,1009.206
2.372015953,0.1909005,-0.09494619,0.2063449,-0.02851707,0.9949518,0.1598421,-6.598192,-28.86944,-21.82527,1009.206
2.377091885,0.2527623,-0.1544351,0.02332413,-0.03006659,0.9997965,0.1593698,-6.598192,-28.86944,-21.82527,1009.206
2.382167339,0.005314875,-0.1544351,0.2063449,-0.02699037,0.9915864,0.1627101,-6.598192,-28.86944,-21.82527,1009.206
2.387243271,-0.2421326,-0.2139241,0.2063449,-0.03183131,0.9895081,0.1550571,-6.598192,-28.86944,-21.82527,1009.206
2.392319203,0.06717674,-0.3329019,0.02332413,-0.02798502,0.9920003,0.1550498,-6.598192,-28.86944,-21.82527,1009.206
2.394857407,0.1290386,-0.09494619,0.145338,-0.0294173,0.9905179,0.1550522,-6.598192,-28.86944,-21.82527,1009.206
2.399932385,0.1909005,-0.2139241,0.02332413,-0.02796872,0.991019,0.1540913,-6.598192,-28.86944,-21.82527,1009.206
2.405008316,0.2527623,-0.2139241,0.145338,-0.02544481,0.9861959,0.1555193,-6.598192,-28.86944,-21.82527,1009.206
2.410084248,0.06717674,-0.1544351,0.145338,-0.02549121,0.9886235,0.1545631,-6.598192,-28.86944,-21.82527,1009.208
2.415160179,0.06717674,0.08352062,0.145338,-0.02986302,0.9885848,0.1579256,-6.209425,-28.8625,-20.91365,1009.208
2.420235634,0.2527623,-0.09494619,-0.1596966,-0.02793297,0.9895984,0.1593585,-6.209425,-28.8625,-20.91365,1009.208
2.425311565,0.1909005,-0.09494619,-0.1596966,-0.03046341,0.9949195,0.1593677,-6.209425,-28.8625,-20.91365,1009.208
2.430388928,0.1909005,-0.09494619,0.02332413,-0.02887718,0.9876031,0.1550492,-6.209425,-28.8625,-20.91365,1009.208
2.435463429,0.06717674,-0.03545725,-0.1596966,-0.02110567,0.9887246,0.1593423,-6.209425,-28.8625,-20.91365,1009.208
2.440538883,0.1909005,0.08352062,-0.09868971,-0.02360278,0.9926141,0.1631818,-6.209425,-28.8625,-20.91365,1009.208
2.445614815,-0.05654699,0.1430096,0.145338,-0.02507324,0.9925412,0.1564802,-6.209425,-28.8625,-20.91365,1009.208
2.450690746,0.1290386,0.02403168,0.08433105,-0.02437602,0.9813697,0.1593453,-6.209425,-28.8625,-20.91365,1009.208
2.455766678,0.1909005,-0.09494619,0.02332413,-0.02650883,0.9915715,0.1598354,-6.209425,-28.8625,-20.91365,1009.208
2.460842133,0.1290386,0.02403168,-0.09868971,-0.0309473,0.994396,0.1555371,-6.984842,-29.25257,-22.27671,1009.208
2.465918064,0.2527623,0.2024985,0.02332413,-0.02399792,0.987217,0.1588691,-6.984842,-29.25257,-22.27671,1009.208
2.470993996,0.1909005,0.02403168,-0.09868971,-0.02306751,0.9896773,0.1603052,-6.984842,-29.25257,-22.27671,1009.208
2.476069927,0.1909005,0.2024985,0.2063449,-0.02993386,0.9924844,0.1584071,-6.984842,-29.25257,-22.27671,1009.208
2.481150150,0.376486,0.02403168,-0.03768278,-0.02887476,0.9876141,0.1564859,-6.984842,-29.25257,-22.27671,1009.208
2.486221314,0.3146242,0.3214763,0.2063449,-0.02553364,0.9915968,0.16127,-6.984842,-29.25257,-22.27671,1009.208
2.491297245,0.376486,0.1430096,0.02332413,-0.02793943,0.989569,0.1555271,-6.984842,-29.25257,-22.27671,1009.209
2.496373177,0.376486,0.3214763,-0.09868971,-0.02647058,0.9896345,0.1612709,-6.984842,-29.25257,-22.27671,1009.209
2.501448631,0.376486,0.2619874,-0.03768278,-0.02744981,0.9895908,0.1574417,-6.984842,-29.25257,-22.27671,1009.209
2.506524563,0.4383479,0.2024985,-0.2207035,-0.02497238,0.9877228,0.163182,-6.984842,-29.25257,-22.27671,1009.209
2.511600495,0.5620716,0.3214763,-0.03768278,-0.0284242,0.9895692,0.1564861,-6.600285,-29.25558,-22.27393,1009.209
2.516676426,0.376486,0.2024985,0.08433105,-0.02744167,0.9891002,0.1569625,-6.600285,-29.25558,-22.27393,1009.209
2.521751404,0.4383479,0.2024985,0.145338,-0.02503338,0.9906116,0.1588736,-6.600285,-29.25558,-22.27393,1009.209
2.526827812,0.2527623,0.1430096,0.145338,-0.02792321,0.9891151,0.1598371,-6.600285,-29.25558,-22.27393,1009.209
2.531903744,0.376486,0.2619874,0.3283587,-0.02899038,0.9939486,0.156969,-6.600285,-29.25558,-22.27393,1009.209
2.536979675,0.5002097,0.02403168,0.3283587,-0.03230713,0.9890214,0.1560158,-6.600285,-29.25558,-22.27393,1009.209
2.542055607,0.5620716,0.2024985,0.145338,-0.03427058,0.9899668,0.1560209,-6.600285,-29.25558,-22.27393,1009.209
2.547133923,0.5620716,0.1430096,0.08433105,-0.03293277,0.9968243,0.1584167,-6.600285,-29.25558,-22.27393,1009.209
2.552206993,0.5620716,0.02403168,0.02332413,-0.03525069,0.9904467,0.1569813,-6.600285,-29.25558,-22.27393,1009.209
2.557282925,0.6239334,0.08352062,0.145338,-0.02797202,0.9915317,0.1574441,-6.982738,-29.2476,-21.8223,1009.209
2.562358856,0.4383479,0.08352062,0.08433105,-0.03771609,0.9928973,0.1636934,-6.982738,-29.2476,-21.8223,1009.209
2.564896107,0.7476572,0.1430096,-0.03768278,-0.03328071,0.9890034,0.1555391,-6.982738,-29.2476,-21.8223,1009.209
2.569972038,0.7476572,0.1430096,0.08433105,-0.03233414,0.9915371,0.1665537,-6.982738,-29.2476,-21.8223,1009.209
2.575047970,0.4383479,0.08352062,0.02332413,-0.03237804,0.9934483,0.1617658,-6.982738,-29.2476,-21.8223,1009.209
2.580123902,0.3146242,0.02403168,-0.1596966,-0.03038193,0.9900129,0.1545752,-6.982738,-29.2476,-21.8223,1009.209
2.585199356,0.4383479,0.3214763,-0.1596966,-0.03138568,0.9919686,0.1574523,-6.982738,-29.2476,-21.8223,1009.209
2.590275288,0.5002097,0.1430096,-0.03768278,-0.03238773,0.9934042,0.1560187,-6.982738,-29.2476,-21.8223,1009.209
2.595351219,0.5002097,0.1430096,0.08433105,-0.02701959,0.9925089,0.1560058,-6.982738,-29.2476,-21.8223,1009.209
2.600427151,0.5620716,0.08352062,-0.03768278,-0.02990457,0.9910344,0.1598429,-6.982738,-29.2476,-21.8223,1009.209
2.605502606,0.5002097,0.1430096,0.145338,-0.0343219,0.9928996,0.1574596,-5.831177,-28.88042,-22.27411,1009.209
2.610578537,0.4383479,0.2024985,0.3283587,-0.0332799,0.9890071,0.156018,-5.831177,-28.88042,-22.27411,1009.209
2.615654469,0.5002097,0.3214763,0.2063449,-0.03280908,0.9905266,0.1627228,-5.831177,-28.88042,-22.27411,1009.211
2.620730400,0.6239334,0.3214763,0.145338,-0.03533783,0.9953276,0.1584213,-5.831177,-28.88042,-22.27411,1009.211
2.625805378,0.4383479,0.1430096,0.2063449,-0.03383712,0.9928994,0.1565006,-5.831177,-28.88042,-22.27411,1009.211
2.630881310,0.2527623,0.4404542,0.08433105,-0.03274719,0.987114,0.1622417,-5.831177,-28.88042,-22.27411,1009.211
2.635957718,0.6239334,0.2619874,0.08433105,-0.03675382,0.9928638,0.1574652,-5.831177,-28.88042,-22.27411,1009.211
2.641033650,0.5002097,0.1430096,0.145338,-0.03564429,0.9855844,0.1588949,-5.831177,-28.88042,-22.27411,1009.211
2.646108627,0.5002097,0.3214763,-0.03768278,-0.03726795,0.9948414,0.1622568,-5.831177,-28.88042,-22.27411,1009.211
2.651184559,0.4383479,0.2619874,-0.03768278,-0.03430559,0.9919183,0.1565011,-5.831177,-28.88042,-22.27411,1009.211
2.656260491,0.4383479,0.3809653,-0.09868971,-0.03432035,0.9934343,0.1636859,-6.209414,-29.24365,-20.9079,1009.211
2.661336422,0.4383479,0.2619874,-0.1596966,-0.0332628,0.9880294,0.1555385,-6.209414,-29.24365,-20.9079,1009.211
2.666412831,0.4383479,0.2619874,-0.1596966,-0.03857316,0.9860211,0.1579441,-6.209414,-29.24365,-20.9079,1009.211
2.671487808,0.5620716,0.2619874,0.02332413,-0.03765736,0.9889427,0.156028,-6.209414,-29.24365,-20.9079,1009.211
2.676563740,0.5620716,0.4999432,-0.03768278,-0.03973717,0.9956914,0.1507688,-6.209414,-29.24365,-20.9079,1009.211
2.681640625,0.5002097,0.1430096,-0.03768278,-0.04064247,0.9928176,0.1589109,-6.209414,-29.24365,-20.9079,1009.211
2.686715603,0.5620716,0.2619874,-0.09868971,-0.03720842,0.9908904,0.1550704,-6.209414,-29.24365,-20.9079,1009.211
2.691791058,0.5620716,0.3214763,-0.03768278,-0.03588933,0.9987183,0.1569879,-6.209414,-29.24365,-20.9079,1009.211
2.696870327,0.376486,0.2619874,-0.03768278,-0.03628373,0.9938523,0.1584225,-6.209414,-29.24365,-20.9079,1009.211
2.701942921,0.3146242,0.08352062,-0.2207035,-0.03386392,0.9938329,0.1512331,-6.213633,-28.87245,-21.82248,1009.211
2.707018852,0.5002097,0.2024985,-0.09868971,-0.03524005,0.9894397,0.1526703,-6.213633,-28.87245,-21.82248,1009.211
2.712094307,0.3146242,0.3809653,-0.2207035,-0.04168109,0.9956701,0.1517311,-6.213633,-28.87245,-21.82248,1009.211
2.717170239,0.376486,0.2619874,-0.2207035,-0.03623888,0.99089,0.1531525,-6.213633,-28.87245,-21.82248,1009.211
2.722246170,0.1909005,0.2024985,-0.2207035,-0.03972175,0.9952338,0.1545999,-6.213633,-28.87245,-21.82248,1009.211
2.727322102,0.3146242,0.1430096,-0.2817104,-0.036151,0.9865401,0.1574599,-6.213633,-28.87245,-21.82248,1009.211
2.729859352,0.1909005,0.2024985,-0.3427173,-0.03963792,0.9908656,0.1565127,-6.213633,-28.87245,-21.82248,1009.211
2.734935284,0.4383479,0.08352062,-0.2207035,-0.03539237,0.9982458,0.1579443,-6.213633,-28.87245,-21.82248,1009.211
2.740011215,0.1290386,0.1430096,-0.2207035,-0.03630561,0.9942806,0.1507601,-6.213633,-28.87245,-21.82248,1009.211
2.745087147,0.1909005,0.3214763,-0.2207035,-0.03922472,0.994234,0.1502879,-6.213633,-28.87245,-21.82248,1009.211
2.750162602,0.2527623,0.1430096,-0.2817104,-0.03921099,0.9942964,0.1584296,-5.831165,-29.26158,-22.26835,1009.211
2.755241394,0.1290386,0.08352062,-0.2817104,-0.04014948,0.9917994,0.1522042,-5.831165,-29.26158,-22.26835,1009.211
2.760314465,0.06717674,0.1430096,-0.2207035,-0.04014457,0.991294,0.1498092,-5.831165,-29.26158,-22.26835,1009.211
2.765390396,0.1290386,-0.03545725,-0.2207035,-0.04208444,0.9912912,0.1531661,-5.831165,-29.26158,-22.26835,1009.211
2.770466328,0.2527623,0.1430096,-0.3427173,-0.04216498,0.9951466,0.1479005,-5.831165,-29.26158,-22.26835,1009.211
2.775541782,0.06717674,-0.1544351,-0.1596966,-0.03823646,0.9932632,0.1488482,-5.831165,-29.26158,-22.26835,1009.211
2.780617714,0.1909005,0.1430096,-0.1596966,-0.03964357,0.9908399,0.1531602,-5.831165,-29.26158,-22.26835,1009.214
2.785693645,0.2527623,-0.03545725,-0.2817104,-0.03668694,0.9884186,0.1493205,-5.831165,-29.26158,-22.26835,1009.214
2.790769577,0.3146242,-0.03545725,-0.2817104,-0.03622016,0.9899197,0.1536307,-5.831165,-29.26158,-22.26835,1009.214
2.795845032,0.3146242,-0.1544351,-0.2817104,-0.03710094,0.9850466,0.1550665,-5.831165,-29.26158,-22.26835,1009.214
2.800920963,0.3146242,-0.273413,-0.3427173,-0.03724916,0.9933437,0.1574666,-6.211517,-29.24862,-21.36231,1009.214
2.805996895,0.1909005,-0.1544351,-0.5257381,-0.03719866,0.9904071,0.155549,-6.211517,-29.24862,-21.36231,1009.214
2.811072826,0.2527623,-0.03545725,-0.5257381,-0.03773701,0.9922745,0.1459729,-6.211517,-29.24862,-21.36231,1009.214
2.816148281,0.06717674,-0.09494619,-0.4037243,-0.03875383,0.9952261,0.1517241,-6.211517,-29.24862,-21.36231,1009.214
2.821224213,0.4383479,-0.2139241,-0.4647312,-0.03573135,0.9899379,0.1550664,-6.211517,-29.24862,-21.36231,1009.215
2.826300144,0.2527623,-0.1544351,-0.4647312,-0.03585835,0.9967483,0.154113,-6.211517,-29.24862,-21.36231,1009.215
2.831376076,0.06717674,0.08352062,-0.4037243,-0.03872776,0.9937614,0.1512443,-6.211517,-29.24862,-21.36231,1009.215
2.836451530,0.1909005,-0.1544351,-0.4037243,-0.03688316,0.9991358,0.1498065,-6.211517,-29.24862,-21.36231,1009.215
2.841527462,0.06717674,-0.09494619,-0.1596966,-0.04255696,0.9902917,0.150772,-6.211517,-29.24862,-21.36231,1009.215
2.846603394,-0.1802707,-0.3329019,-0.09868971,-0.03970053,0.9937471,0.1512465,-6.5961,-28.48331,-21.37661,1009.215
2.851679325,-0.2421326,-0.2139241,-0.03768278,-0.0371905,0.9899164,0.1550697,-6.5961,-28.48331,-21.37661,1009.215
2.856754780,-0.1802707,-0.3923909,-0.2817104,-0.03675198,0.9912891,0.1426175,-6.5961,-28.48331,-21.37661,1009.215
2.861830711,-0.3039944,-0.3329019,-0.3427173,-0.03430626,0.9908599,0.1454852,-6.5961,-28.48331,-21.37661,1009.214
2.866906643,-0.2421326,-0.2139241,-0.09868971,-0.04066677,0.9932348,0.1498116,-6.5961,-28.48331,-21.37661,1009.214
2.871982574,-0.2421326,-0.3329019,-0.1596966,-0.03583706,0.9947343,0.1454911,-6.5961,-28.48331,-21.37661,1009.214
2.877057552,-0.4277182,-0.4518798,-0.1596966,-0.03779809,0.9956907,0.146933,-6.5961,-28.48331,-21.37661,1009.214
2.882133961,-0.4277182,-0.03545725,-0.2207035,-0.03719366,0.9893743,0.1478855,-6.5961,-28.48331,-21.37661,1009.214
2.887209892,-0.2421326,-0.2139241,-0.2207035,-0.03670566,0.9893888,0.1488423,-6.5961,-28.48331,-21.37661,1009.214
2.892289162,-0.3658563,-0.3329019,-0.09868971,-0.03675286,0.9918128,0.1474071,-6.5961,-28.48331,-21.37661,1009.214
2.897360802,-0.2421326,-0.273413,-0.09868971,-0.03376944,0.9884578,0.1488349,-6.598181,-29.2506,-21.81951,1009.214
2.899899006,-0.1184088,-0.1544351,-0.1596966,-0.03529701,0.9923469,0.1507566,-6.598181,-29.2506,-21.81951,1009.214
2.904979706,-0.2421326,-0.2139241,-0.2207035,-0.03476093,0.9894138,0.1483589,-6.598181,-29.2506,-21.81951,1009.214
2.910050869,-0.3658563,-0.09494619,-0.1596966,-0.03868298,0.9913266,0.1512426,-6.598181,-29.2506,-21.81951,1009.214
2.915126801,-0.3658563,-0.1544351,-0.3427173,-0.03229883,0.9874759,0.1449995,-6.598181,-29.2506,-21.81951,1009.214
2.920202732,-0.1184088,-0.273413,-0.2207035,-0.03373604,0.9864988,0.1473969,-6.598181,-29.2506,-21.81951,1009.214
2.925278187,-0.05654699,-0.03545725,-0.1596966,-0.02804844,0.9948781,0.1493047,-6.598181,-29.2506,-21.81951,1009.214
2.930354118,-0.1802707,-0.1544351,-0.1596966,-0.03375475,0.9874691,0.1469186,-6.598181,-29.2506,-21.81951,1009.214
2.935431957,-0.1184088,0.2024985,-0.1596966,-0.03140916,0.9923894,0.1488319,-6.598181,-29.2506,-21.81951,1009.214
2.940505505,-0.2421326,-0.03545725,-0.2207035,-0.03428027,0.9899226,0.1502738,-6.598181,-29.2506,-21.81951,1009.215
2.945581436,-0.05654699,-0.1544351,-0.2817104,-0.03430714,0.9913836,0.1502748,-6.980658,-28.48031,-21.37939,1009.215
2.950657368,0.005314875,-0.2139241,0.02332413,-0.03338561,0.9938034,0.1464427,-6.980658,-28.48031,-21.37939,1009.215
2.955733299,-0.2421326,-0.03545725,0.145338,-0.03141812,0.9928764,0.1488322,-6.980658,-28.48031,-21.37939,1009.215
2.960808277,-0.3039944,-0.09494619,0.02332413,-0.02939609,0.9890312,0.1516988,-6.980658,-28.48031,-21.37939,1009.215
2.965884686,-0.3658563,-0.09494619,0.2063449,-0.03241453,0.9943378,0.1507511,-6.980658,-28.48031,-21.37939,1009.215
2.970960617,-0.1184088,-0.2139241,-0.03768278,-0.03375395,0.9874728,0.1473975,-6.980658,-28.48031,-21.37939,1009.215
2.976036549,-0.1184088,-0.1544351,-0.09868971,-0.03237943,0.9918588,0.1450024,-6.980658,-28.48031,-21.37939,1009.215
2.981111526,-0.05654699,-0.1544351,0.02332413,-0.03379866,0.9893804,0.1421306,-6.980658,-28.48031,-21.37939,1009.214
2.986187458,-0.2421326,-0.2139241,0.02332413,-0.03239412,0.9928474,0.1469188,-6.980658,-28.48031,-21.37939,1009.214
2.991264343,-0.3039944,-0.2139241,0.145338,-0.0329896,0.9986768,0.1459659,-6.980658,-28.48031,-21.37939,1009.214
2.996339798,-0.3658563,-0.273413,-0.2207035,-0.03248691,0.9977026,0.1450063,-6.600307,-28.49327,-22.28543,1009.214
3.001414776,-0.4277182,-0.3923909,-0.1596966,-0.0319012,0.9923566,0.1454806,-6.600307,-28.49327,-22.28543,1009.214
3.006490707,-0.6751657,-0.09494619,-0.09868971,-0.02996792,0.9933848,0.1488292,-6.600307,-28.49327,-22.28543,1009.214
3.011566639,-0.4277182,-0.3329019,-0.1596966,-0.03191588,0.9933452,0.1473969,-6.600307,-28.49327,-22.28543,1009.214
3.016642570,-0.48958,-0.3923909,-0.03768278,-0.03040219,0.9904485,0.1478706,-6.600307,-28.49327,-22.28543,1009.214
3.021718025,-0.4277182,-0.273413,0.08433105,-0.03343281,0.9962273,0.1450076,-6.600307,-28.49327,-22.28543,1009.214
3.026793957,-0.5514419,-0.3923909,-0.1596966,-0.03429407,0.9903876,0.1474006,-6.600307,-28.49327,-22.28543,1009.214
3.031869888,-0.5514419,-0.2139241,-0.2207035,-0.03000624,0.9958492,0.1526622,-6.600307,-28.49327,-22.28543,1009.214
3.036950111,-0.4277182,-0.3329019,0.02332413,-0.03091874,0.992415,0.1512254,-6.600307,-28.49327,-22.28543,1009.214
3.042021275,-0.6133038,-0.5113687,0.08433105,-0.02704235,0.9934608,0.1531329,-6.211529,-28.86747,-21.36807,1009.214
3.047097206,-0.5514419,-0.273413,0.08433105,-0.02756448,0.9948742,0.1478668,-6.211529,-28.86747,-21.36807,1009.214
3.052173138,-0.6751657,-0.273413,0.2063449,-0.02745958,0.9900742,0.1569631,-6.211529,-28.86747,-21.36807,1009.214
3.057249069,-0.48958,-0.1544351,0.08433105,-0.02655427,0.9929479,0.1488211,-6.211529,-28.86747,-21.36807,1009.214
3.062324524,-0.48958,-0.5113687,0.145338,-0.03039822,0.9909942,0.1555337,-6.211529,-28.86747,-21.36807,1009.214
3.064862251,-0.6751657,-0.1544351,0.2673518,-0.02945548,0.9919274,0.1483482,-6.211529,-28.86747,-21.36807,1009.215
3.069938183,-0.48958,-0.3329019,0.2673518,-0.03035014,0.9880466,0.1521793,-6.211529,-28.86747,-21.36807,1009.215
3.075014114,-0.48958,-0.3923909,0.145338,-0.03089922,0.9914484,0.1521827,-6.211529,-28.86747,-21.36807,1009.215
3.080090523,-0.48958,-0.4518798,0.2063449,-0.02700652,0.991513,0.1531316,-6.211529,-28.86747,-21.36807,1009.215
3.085165501,-0.48958,-0.273413,0.08433105,-0.03048286,0.9953587,0.153142,-6.211529,-28.86747,-21.36807,1009.215
3.090241432,-0.6751657,-0.3329019,0.02332413,-0.0294027,0.9900566,0.1584044,-5.829062,-29.2566,-21.81394,1009.215
3.095317364,-0.6133038,-0.3923909,0.145338,-0.02562717,0.9959209,0.1536101,-5.829062,-29.2566,-21.81394,1009.215
3.100393295,-0.6133038,-0.3923909,0.145338,-0.02646075,0.9886239,0.156481,-5.829062,-29.2566,-21.81394,1009.215
3.105468750,-0.6751657,-0.273413,0.2063449,-0.02902048,0.9953948,0.1550543,-5.829062,-29.2566,-21.81394,1009.215
3.110544682,-0.2421326,-0.273413,0.3283587,-0.02595153,0.9871517,0.1540843,-5.829062,-29.2566,-21.81394,1009.215
3.115620613,-0.4277182,-0.09494619,0.2063449,-0.02365968,0.9949939,0.1559996,-5.829062,-29.2566,-21.81394,1009.215
3.120696545,-0.4277182,-0.273413,0.2063449,-0.02507493,0.9930612,0.1607909,-5.829062,-29.2566,-21.81394,1009.215
3.125771999,-0.5514419,-0.2139241,0.3893656,-0.02752469,0.993472,0.1555286,-5.829062,-29.2566,-21.81394,1009.215
3.130847931,-0.5514419,-0.1544351,0.2063449,-0.02499917,0.9886563,0.1579144,-5.829062,-29.2566,-21.81394,1009.215
3.135923862,-0.3039944,-0.2139241,0.2063449,-0.03277237,0.9880549,0.157932,-5.829062,-29.2566,-21.81394,1009.215
3.140999794,-0.3658563,0.02403168,0.2673518,-0.02977596,0.9842314,0.1617541,-5.826958,-29.25163,-21.35953,1009.215
3.146075249,-0.3039944,-0.2139241,0.145338,-0.02558892,0.9939839,0.1550455,-5.826958,-29.25163,-21.35953,1009.217
3.151151180,-0.4277182,-0.1544351,0.08433105,-0.02890486,0.9890604,0.1545712,-5.826958,-29.25163,-21.35953,1009.217
3.156227112,-0.3039944,-0.03545725,0.02332413,-0.02357995,0.9911348,0.1607863,-5.826958,-29.25163,-21.35953,1009.217
3.161303043,-0.48958,-0.03545725,0.08433105,-0.02554663,0.9920654,0.1588756,-5.826958,-29.25163,-21.35953,1009.217
3.166378498,-0.3658563,-0.03545725,0.145338,-0.02696351,0.9901254,0.1627091,-5.826958,-29.25163,-21.35953,1009.217
3.171454430,-0.4277182,-0.03545725,0.145338,-0.03332717,0.9919584,0.1598513,-5.826958,-29.25163,-21.35953,1009.217
3.176530361,-0.48958,0.02403168,0.02332413,-0.02997049,0.9944286,0.1579295,-5.826958,-29.25163,-21.35953,1009.217
3.181606293,-0.3658563,0.02403168,0.2673518,-0.02604036,0.9925526,0.1598349,-5.826958,-29.25163,-21.35953,1009.217
3.186681747,-0.5514419,-0.2139241,0.3893656,-0.0275305,0.9945011,0.1627131,-6.598192,-28.86944,-21.82527,1009.217
3.191757679,-0.6133038,0.02403168,0.3893656,-0.03127673,0.9871868,0.1689432,-6.598192,-28.86944,-21.82527,1009.217
3.196833611,-0.48958,-0.1544351,0.3893656,-0.03238619,0.9939389,0.162245,-6.598192,-28.86944,-21.82527,1009.217
3.201909542,-0.48958,0.02403168,0.2673518,-0.02649496,0.9905791,0.1574401,-6.598192,-28.86944,-21.82527,1009.217
3.206984520,-0.48958,-0.1544351,0.4503725,-0.03242363,0.9958795,0.1612885,-6.598192,-28.86944,-21.82527,1009.217
3.212060928,-0.5514419,0.08352062,0.3893656,-0.0289644,0.9930114,0.1617576,-6.598192,-28.86944,-21.82527,1009.217
3.217136860,-0.3039944,-0.03545725,0.4503725,-0.0274645,0.9905795,0.1593581,-6.598192,-28.86944,-21.82527,1009.217
3.222212791,-0.1184088,-0.03545725,0.3893656,-0.03316684,0.9837163,0.1646351,-6.598192,-28.86944,-21.82527,1009.217
3.227288723,-0.1802707,-0.09494619,0.2673518,-0.02989892,0.9910601,0.1631954,-6.598192,-28.86944,-21.82527,1009.219
3.229825974,-0.3039944,-0.09494619,0.3283587,-0.02985252,0.9886326,0.1641516,-6.598192,-28.86944,-21.82527,1009.219
3.234901905,-0.1802707,-0.03545725,0.3283587,-0.02940916,0.9900272,0.154573,-6.600285,-29.25558,-22.27393,1009.219
3.239977837,0.005314875,-0.09494619,0.3283587,-0.02797122,0.9915354,0.1579231,-6.600285,-29.25558,-22.27393,1009.219
3.245053768,-0.2421326,-0.2139241,0.2673518,-0.03037069,0.9905917,0.1665486,-6.600285,-29.25558,-22.27393,1009.219
3.250134468,-0.1184088,-0.1544351,0.02332413,-0.0303853,0.991053,0.1631965,-6.600285,-29.25558,-22.27393,1009.219
3.255205154,-0.2421326,-0.03545725,0.145338,-0.03769649,0.9914033,0.1593821,-6.600285,-29.25558,-22.27393,1009.219
3.260281086,-0.1802707,-0.09494619,-0.03768278,-0.03074469,0.9842354,0.164151,-6.600285,-29.25558,-22.27393,1009.219
3.265357018,-0.3658563,-0.09494619,0.02332413,-0.03085539,0.9900646,0.1622391,-6.600285,-29.25558,-22.27393,1009.219
3.270432472,-0.1184088,-0.09494619,0.02332413,-0.03173941,0.9851767,0.1617592,-6.600285,-29.25558,-22.27393,1009.219
3.275510311,-0.1802707,-0.09494619,0.08433105,-0.034687,0.9865837,0.1603301,-6.600285,-29.25558,-22.27393,1009.219
3.280584335,-0.05654699,-0.2139241,-0.03768278,-0.03124326,0.9847006,0.1622367,-6.600285,-29.25558,-22.27393,1009.219
3.285660267,0.1290386,-0.09494619,-0.09868971,-0.02546933,0.9881952,0.1622256,-5.829073,-28.87545,-21.81969,1009.219
3.290735245,0.005314875,0.02403168,0.02332413,-0.03517177,0.9865838,0.1612891,-5.829073,-28.87545,-21.81969,1009.219
3.295811653,-0.05654699,-0.03545725,-0.09868971,-0.03286847,0.9934227,0.1593723,-5.829073,-28.87545,-21.81969,1009.219
3.300887585,-0.05654699,-0.273413,0.02332413,-0.02933193,0.9866844,0.1631914,-5.829073,-28.87545,-21.81969,1009.219
3.305963516,0.1290386,-0.09494619,0.08433105,-0.0328253,0.9909805,0.1584128,-5.829073,-28.87545,-21.81969,1009.219
3.311038494,0.005314875,0.02403168,0.02332413,-0.03379565,0.9909772,0.1598518,-5.829073,-28.87545,-21.81969,1009.217
3.316114426,0.1290386,-0.03545725,0.145338,-0.03424298,0.9890368,0.1617673,-5.829073,-28.87545,-21.81969,1009.217
3.321194649,0.1290386,0.1430096,0.02332413,-0.03380864,0.9914458,0.1574575,-5.829073,-28.87545,-21.81969,1009.217
3.326266766,0.005314875,0.2024985,0.145338,-0.03813648,0.9889686,0.1603395,-5.829073,-28.87545,-21.81969,1009.217
3.331341744,0.06717674,0.02403168,0.02332413,-0.03721172,0.9914032,0.1584232,-6.598181,-29.2506,-21.81951,1009.217
3.336418629,-0.05654699,0.3214763,0.08433105,-0.03378831,0.9904829,0.1588936,-6.598181,-29.2506,-21.81951,1009.217
3.341493607,0.06717674,0.02403168,0.145338,-0.03471629,0.9880336,0.1588943,-6.598181,-29.2506,-21.81951,1009.217
3.346569538,0.2527623,0.2024985,0.145338,-0.03442533,0.9987618,0.1598581,-6.598181,-29.2506,-21.81951,1009.217
3.351645470,0.1909005,0.08352062,0.145338,-0.03372077,0.987096,0.1617649,-6.598181,-29.2506,-21.81951,1009.217
3.356720924,0.06717674,0.08352062,0.3283587,-0.03130184,0.9876004,0.1593651,-6.598181,-29.2506,-21.81951,1009.217
3.361796856,0.06717674,0.1430096,0.145338,-0.03314563,0.9822297,0.1612817,-6.598181,-29.2506,-21.81951,1009.217
3.366877079,0.005314875,-0.2139241,0.2063449,-0.03082764,0.9880798,0.1574486,-6.598181,-29.2506,-21.81951,1009.217
3.371948719,0.06717674,-0.273413,0.2063449,-0.03908884,0.9874639,0.1565094,-6.598181,-29.2506,-21.81951,1009.217
3.377024174,0.1290386,-0.09494619,0.02332413,-0.0361535,0.9870566,0.1612916,-6.598181,-29.2506,-21.81951,1009.217
3.382100105,0.1909005,-0.2139241,0.02332413,-0.0366277,0.9865771,0.1632081,-6.980635,-29.24262,-21.36789,1009.217
3.387176037,0.4383479,-0.273413,-0.2817104,-0.03962089,0.9904153,0.1613017,-6.980635,-29.24262,-21.36789,1009.217
3.392251968,0.06717674,-0.2139241,-0.2817104,-0.0371629,0.9889866,0.1608162,-6.980635,-29.24262,-21.36789,1009.221
3.397327423,0.3146242,-0.273413,-0.1596966,-0.03470895,0.9875393,0.1579361,-6.980635,-29.24262,-21.36789,1009.221
3.402408123,0.4383479,-0.2139241,-0.2207035,-0.03962169,0.9904117,0.1608227,-6.980635,-29.24262,-21.36789,1009.221
3.404941082,0.376486,-0.273413,-0.03768278,-0.03717105,0.9894772,0.1612954,-6.980635,-29.24262,-21.36789,1009.221
3.410017490,0.1909005,-0.2139241,-0.1596966,-0.03481393,0.9928668,0.1541082,-6.980635,-29.24262,-21.36789,1009.221
3.415092468,0.4383479,-0.2139241,0.08433105,-0.03776733,0.9953029,0.1598636,-6.980635,-29.24262,-21.36789,1009.221
3.420168400,0.2527623,-0.3923909,0.08433105,-0.03628285,0.9933286,0.153633,-6.980635,-29.24262,-21.36789,1009.221
3.425244331,0.2527623,-0.3923909,-0.03768278,-0.03765736,0.9889427,0.156028,-6.980635,-29.24262,-21.36789,1009.221
3.430320263,0.1909005,-0.273413,-0.1596966,-0.03866838,0.9908653,0.1545948,-6.596077,-29.24562,-21.3651,1009.221
3.435395718,0.376486,-0.4518798,-0.03768278,-0.04163146,0.9932572,0.1546031,-6.596077,-29.24562,-21.3651,1009.221
3.440473557,0.2527623,-0.273413,-0.09868971,-0.03907827,0.9869843,0.1574669,-6.596077,-29.24562,-21.3651,1009.221
3.445547581,0.2527623,-0.4518798,-0.09868971,-0.03918009,0.9928538,0.1608232,-6.596077,-29.24562,-21.3651,1009.221
3.450623512,0.376486,-0.3329019,-0.09868971,-0.0352515,0.9904431,0.1565024,-6.596077,-29.24562,-21.3651,1009.221
3.455699444,0.1290386,-0.5113687,-0.03768278,-0.03131153,0.9875563,0.153618,-6.596077,-29.24562,-21.3651,1009.221
3.460774899,0.1290386,-0.3923909,-0.1596966,-0.03331007,0.9909807,0.1593718,-6.596077,-29.24562,-21.3651,1009.221
3.465850830,0.3146242,-0.4518798,-0.1596966,-0.03481724,0.9933794,0.157461,-6.596077,-29.24562,-21.3651,1009.221
3.470926762,0.4383479,-0.3329019,-0.03768278,-0.03764679,0.988463,0.1569856,-6.596077,-29.24562,-21.3651,1009.221
3.476002693,0.1909005,-0.273413,0.08433105,-0.03485709,0.995309,0.1550677,-6.980635,-29.24262,-21.36789,1009.221
3.481078148,0.3146242,-0.4518798,0.02332413,-0.03920196,0.993282,0.1531608,-6.980635,-29.24262,-21.36789,1009.221
3.486154080,0.3146242,-0.3329019,0.02332413,-0.03918978,0.9928097,0.1550761,-6.980635,-29.24262,-21.36789,1009.221
3.491230011,0.005314875,-0.2139241,0.145338,-0.03724262,0.9928457,0.1560295,-6.980635,-29.24262,-21.36789,1009.221
3.496306419,0.3146242,-0.273413,0.145338,-0.03773635,0.9933329,0.1569888,-6.980635,-29.24262,-21.36789,1009.221
3.501381397,0.2527623,-0.2139241,0.08433105,-0.03919382,0.9927914,0.1526815,-6.980635,-29.24262,-21.36789,1009.221
3.506457329,0.2527623,-0.2139241,-0.09868971,-0.03621612,0.9899381,0.1560253,-6.980635,-29.24262,-21.36789,1009.221
3.511533260,0.1290386,-0.2139241,-0.09868971,-0.03814866,0.9894409,0.1584241,-6.980635,-29.24262,-21.36789,1009.221
3.516609192,0.1909005,-0.2139241,0.08433105,-0.03277318,0.9880512,0.157453,-6.980635,-29.24262,-21.36789,1009.221
3.521684647,0.1909005,-0.273413,-0.09868971,-0.03575579,0.9914099,0.1565041,-6.980635,-29.24262,-21.36789,1009.221
3.526760578,0.2527623,-0.2139241,0.145338,-0.03374264,0.9875242,0.1541025,-6.213621,-29.2536,-21.81673,1009.221
3.531836510,0.1909005,-0.09494619,-0.1596966,-0.03676447,0.9938709,0.1617761,-6.213621,-29.2536,-21.81673,1009.221
3.536912441,0.2527623,-0.1544351,-0.09868971,-0.03375733,0.9885129,0.1560188,-6.213621,-29.2536,-21.81673,1009.221
3.541987896,0.2527623,-0.03545725,-0.03768278,-0.03277641,0.9880365,0.1555373,-6.213621,-29.2536,-21.81673,1009.221
3.547063828,0.376486,-0.09494619,-0.09868971,-0.03582744,0.9953057,0.1565067,-6.213621,-29.2536,-21.81673,1009.221
3.552139759,0.376486,0.08352062,-0.03768278,-0.03577136,0.9929222,0.16321,-6.213621,-29.2536,-21.81673,1009.221
3.557215691,0.4383479,-0.03545725,-0.03768278,-0.03673348,0.9919009,0.1589013,-6.213621,-29.2536,-21.81673,1009.219
3.562290669,0.2527623,-0.273413,-0.2207035,-0.03675051,0.9923512,0.1541124,-6.213621,-29.2536,-21.81673,1009.219
3.567366600,0.3146242,0.2619874,-0.3427173,-0.03968761,0.9938058,0.1589093,-6.213621,-29.2536,-21.81673,1009.219
3.569904804,0.3146242,0.1430096,-0.2817104,-0.03434465,0.9938515,0.1545867,-6.213621,-29.2536,-21.81673,1009.219
3.574980736,0.376486,0.2619874,-0.3427173,-0.03815747,0.9888731,0.1478874,-6.598192,-28.86944,-21.82527,1009.219
3.580056667,0.5002097,0.2619874,-0.2817104,-0.03518807,0.9875652,0.1622476,-6.598192,-28.86944,-21.82527,1009.219
3.585132122,0.3146242,0.1430096,-0.2207035,-0.0353484,0.9958072,0.1574638,-6.598192,-28.86944,-21.82527,1009.219
3.590210438,0.4383479,0.02403168,-0.03768278,-0.03968754,0.9932784,0.1536408,-6.598192,-28.86944,-21.82527,1009.219
3.595283985,0.4383479,0.2024985,-0.2817104,-0.03477488,0.9909335,0.1560226,-6.598192,-28.86944,-21.82527,1009.222
3.600359917,0.376486,0.1430096,-0.2207035,-0.03914339,0.9903822,0.1560324,-6.598192,-28.86944,-21.82527,1009.222
3.605435372,0.2527623,0.3214763,-0.1596966,-0.03723602,0.9918203,0.1493239,-6.598192,-28.86944,-21.82527,1009.222
3.610511303,0.4383479,0.3214763,-0.2207035,-0.02982389,0.9861242,0.1545715,-6.598192,-28.86944,-21.82527,1009.222
3.615587235,0.1909005,0.3809653,-0.2817104,-0.03580872,0.9943355,0.156985,-6.598192,-28.86944,-21.82527,1009.222
3.620663166,0.06717674,0.2024985,-0.2207035,-0.03185576,0.9909801,0.1564949,-6.598192,-28.86944,-21.82527,1009.222
3.625738621,0.1290386,0.2619874,-0.2207035,-0.03192491,0.9943596,0.1526657,-6.600296,-28.87442,-22.27968,1009.222
3.630814552,0.1290386,0.3214763,-0.3427173,-0.0343006,0.9908856,0.1488377,-6.600296,-28.87442,-22.27968,1009.222
3.635894776,0.2527623,0.4404542,-0.2207035,-0.03145886,0.9953297,0.1512285,-6.600296,-28.87442,-22.27968,1009.218
3.640966416,0.3146242,0.3809653,-0.09868971,-0.03131395,0.9875453,0.1521812,-6.600296,-28.87442,-22.27968,1009.218
3.646041393,0.1290386,0.4999432,-0.1596966,-0.03333114,0.9914126,0.1521882,-6.600296,-28.87442,-22.27968,1009.218
3.651117325,0.1909005,0.4404542,-0.09868971,-0.03140512,0.9924078,0.1512266,-6.600296,-28.87442,-22.27968,1009.218
3.656193733,-0.05654699,0.3809653,-0.03768278,-0.03284637,0.9914124,0.1512293,-6.600296,-28.87442,-22.27968,1009.218
3.661269665,0.005314875,0.3809653,-0.2207035,-0.03345564,0.9977067,0.1474032,-6.600296,-28.87442,-22.27968,1009.218
3.666344643,0.005314875,0.1430096,0.08433105,-0.03178242,0.9865642,0.1521817,-6.600296,-28.87442,-22.27968,1009.218
3.671420574,0.1290386,0.618921,0.145338,-0.03920439,0.993271,0.151724,-6.213633,-28.87245,-21.82248,1009.218
3.676496506,-0.05654699,0.3214763,-0.03768278,-0.03771352,0.9918536,0.1545932,-6.213633,-28.87245,-21.82248,1009.218
3.681572437,0.06717674,0.3214763,-0.03768278,-0.02893819,0.990492,0.1507408,-6.213633,-28.87245,-21.82248,1009.218
3.686647892,-0.05654699,0.3809653,0.02332413,-0.03529136,0.9923726,0.154109,-6.213633,-28.87245,-21.82248,1009.218
3.691723824,0.1290386,0.2619874,0.02332413,-0.0347105,0.9870046,0.1517097,-6.213633,-28.87245,-21.82248,1009.218
3.696799755,0.1290386,0.08352062,-0.09868971,-0.03191192,0.9938909,0.15506,-6.213633,-28.87245,-21.82248,1009.218
3.701875687,0.1290386,0.08352062,-0.09868971,-0.04100266,0.9859963,0.1593864,-6.213633,-28.87245,-21.82248,1009.218
3.706951142,0.1909005,0.3214763,-0.03768278,-0.03862602,0.9884194,0.1531564,-6.213633,-28.87245,-21.82248,1009.218
3.712031841,0.06717674,-0.03545725,-0.03768278,-0.0318703,0.990914,0.1478742,-6.213633,-28.87245,-21.82248,1009.218
3.717103005,0.2527623,0.1430096,-0.03768278,-0.02989635,0.9900164,0.1540951,-6.213633,-28.87245,-21.82248,1009.222
3.722178936,0.3146242,0.02403168,-0.1596966,-0.03278294,0.9885346,0.1569744,-6.213633,-28.87245,-21.82248,1009.222
3.727254391,0.3146242,0.08352062,-0.09868971,-0.0357704,0.9918712,0.153152,-6.213633,-28.87245,-21.82248,1009.222
3.732330322,0.3146242,0.08352062,-0.1596966,-0.03332952,0.99142,0.1531461,-6.213633,-28.87245,-21.82248,1009.222
3.734868050,0.4383479,0.2024985,-0.03768278,-0.02841436,0.9885585,0.1516962,-6.213633,-28.87245,-21.82248,1009.222
3.739944458,0.4383479,-0.03545725,-0.1596966,-0.03374837,0.9880259,0.1560185,-6.213633,-28.87245,-21.82248,1009.222
3.745020390,0.3146242,-0.2139241,0.145338,-0.03039492,0.9904816,0.1521809,-6.213633,-28.87245,-21.82248,1009.222
3.750095368,0.2527623,-0.09494619,-0.03768278,-0.03029721,0.985121,0.1516984,-6.213633,-28.87245,-21.82248,1009.222
3.755171299,0.2527623,-0.1544351,0.08433105,-0.03039007,0.9905035,0.1550544,-6.213633,-28.87245,-21.82248,1009.222
3.760247231,0.2527623,-0.4518798,0.02332413,-0.03134735,0.9895042,0.1536192,-6.213633,-28.87245,-21.82248,1009.222
3.765323162,0.2527623,-0.03545725,-0.03768278,-0.0319045,0.9928693,0.1488334,-6.213633,-28.87245,-21.82248,1009.222
3.770398617,0.376486,-0.1544351,-0.09868971,-0.03433239,0.9928519,0.1512336,-5.829073,-28.87545,-21.81969,1009.222
3.775474548,0.2527623,-0.3329019,0.08433105,-0.03331403,0.9904349,0.1517086,-5.829073,-28.87545,-21.81969,1009.222
3.780550480,0.2527623,-0.273413,0.02332413,-0.03431286,0.9918853,0.1521908,-5.829073,-28.87545,-21.81969,1009.222
3.785631180,0.1909005,-0.3329019,-0.03768278,-0.03338003,0.9943565,0.1550637,-5.829073,-28.87545,-21.81969,1009.222
3.790701866,0.005314875,-0.273413,0.02332413,-0.03591532,0.9996555,0.1521993,-5.829073,-28.87545,-21.81969,1009.222
3.795777798,0.1909005,-0.273413,-0.03768278,-0.02655354,0.993479,0.1545685,-5.829073,-28.87545,-21.81969,1009.222
3.800853729,0.1909005,-0.3923909,-0.03768278,-0.03244382,0.9957877,0.1493153,-5.829073,-28.87545,-21.81969,1009.22
3.805929661,0.1290386,-0.273413,-0.1596966,-0.03428519,0.990428,0.1526687,-5.829073,-28.87545,-21.81969,1009.22
3.811005115,0.1909005,-0.6303466,0.02332413,-0.03391442,0.9967696,0.1531507,-5.829073,-28.87545,-21.81969,1009.22
3.816081047,-0.05654699,-0.273413,-0.1596966,-0.03052104,0.9967682,0.146438,-6.598192,-28.86944,-21.82527,1009.22
3.821156979,0.005314875,-0.3923909,0.145338,-0.03531823,0.9938335,0.15411,-6.598192,-28.86944,-21.82527,1009.22
3.826232910,-0.1184088,-0.3329019,-0.09868971,-0.03086508,0.9900205,0.156492,-6.598192,-28.86944,-21.82527,1009.22
3.831308365,-0.05654699,-0.4518798,-0.09868971,-0.03148654,0.996787,0.1507505,-6.598192,-28.86944,-21.82527,1009.22
3.836384296,0.005314875,-0.3923909,-0.09868971,-0.03323996,0.98655,0.1531429,-6.598192,-28.86944,-21.82527,1009.22
3.841460228,0.06717674,-0.1544351,-0.09868971,-0.02991103,0.9910051,0.1560115,-6.598192,-28.86944,-21.82527,1009.214
3.846536159,-0.05654699,-0.273413,-0.2207035,-0.02647455,0.9890888,0.1536078,-6.598192,-28.86944,-21.82527,1009.214
3.851611614,0.005314875,-0.273413,-0.09868971,-0.028438,0.9900342,0.1536129,-6.598192,-28.86944,-21.82527,1009.214
3.856687546,0.06717674,-0.273413,-0.2207035,-0.03179792,0.9875491,0.1536191,-6.598192,-28.86944,-21.82527,1009.214
3.861763477,0.005314875,-0.3329019,-0.2207035,-0.02893173,0.9905214,0.1545722,-6.598192,-28.86944,-21.82527,1009.214
3.866839409,-0.1184088,-0.273413,-0.2207035,-0.02803714,0.9949296,0.1560096,-5.444513,-28.87845,-21.81691,1009.214
3.871914864,-0.1184088,-0.273413,-0.09868971,-0.02801504,0.9929191,0.1478666,-5.444513,-28.87845,-21.81691,1009.214
3.876990795,-0.05654699,-0.273413,-0.03768278,-0.02700087,0.9915386,0.1564841,-5.444513,-28.87845,-21.81691,1009.214
3.882066727,-0.1802707,-0.2139241,-0.03768278,-0.03536462,0.9962612,0.1531537,-5.444513,-28.87845,-21.81691,1009.218
3.887142658,-0.1184088,-0.03545725,-0.09868971,-0.03293755,0.9962749,0.1502746,-5.444513,-28.87845,-21.81691,1009.218
3.892218590,-0.1802707,-0.273413,-0.09868971,-0.02883483,0.9851571,0.1536108,-5.444513,-28.87845,-21.81691,1009.218
3.897293568,-0.3039944,-0.273413,-0.1596966,-0.03240807,0.9943672,0.1545825,-5.444513,-28.87845,-21.81691,1009.218
3.899831772,-0.3039944,-0.03545725,-0.2817104,-0.03346298,0.998201,0.1483613,-5.444513,-28.87845,-21.81691,1009.218
3.904907703,-0.3039944,-0.1544351,-0.1596966,-0.0255978,0.9939435,0.1497774,-5.444513,-28.87845,-21.81691,1009.218
3.909983635,-0.3039944,-0.2139241,-0.03768278,-0.03341013,0.9958028,0.153149,-5.444513,-28.87845,-21.81691,1009.218
3.915059090,-0.3039944,0.02403168,-0.09868971,-0.02659898,0.9948555,0.1435542,-6.211517,-29.24862,-21.36231,1009.218
3.920135021,-0.3039944,-0.2139241,-0.03768278,-0.02806716,0.9958484,0.1488264,-6.211517,-29.24862,-21.36231,1009.218
3.925210953,-0.4277182,-0.03545725,-0.09868971,-0.02944248,0.9914588,0.1507425,-6.211517,-29.24862,-21.36231,1009.218
3.930286884,-0.48958,-0.09494619,-0.03768278,-0.0274424,0.9885691,0.1512151,-6.211517,-29.24862,-21.36231,1009.218
3.935362339,-0.3658563,-0.09494619,-0.03768278,-0.03040387,0.9909685,0.1521812,-6.211517,-29.24862,-21.36231,1009.218
3.940438271,-0.6133038,-0.1544351,-0.03768278,-0.03334582,0.9924012,0.1541046,-6.211517,-29.24862,-21.36231,1009.218
3.945514202,-0.05654699,0.08352062,-0.1596966,-0.03228261,0.987022,0.1493095,-6.211517,-29.24862,-21.36231,1009.218
3.950590134,-0.2421326,-0.03545725,-0.1596966,-0.02835901,0.9856439,0.1526521,-6.211517,-29.24862,-21.36231,1009.218
3.955665588,-0.48958,0.2024985,-0.03768278,-0.032334,0.9904823,0.1560167,-6.211517,-29.24862,-21.36231,1009.218
3.960744858,-0.3039944,0.1430096,0.145338,-0.03289445,0.99436,0.1545837,-6.213644,-28.49129,-21.82824,1009.218
3.965817451,-0.2421326,0.1430096,-0.09868971,-0.02846729,0.9914842,0.1521771,-6.213644,-28.49129,-21.82824,1009.218
3.970893383,-0.1802707,-0.03545725,0.02332413,-0.03536705,0.9962502,0.151717,-6.213644,-28.49129,-21.82824,1009.218
3.975969315,-0.1184088,0.02403168,0.08433105,-0.03002335,0.9968268,0.1531418,-6.213644,-28.49129,-21.82824,1009.218
3.981044292,-0.2421326,-0.09494619,-0.09868971,-0.02892439,0.990027,0.153614,-6.213644,-28.49129,-21.82824,1009.218
3.986120701,-0.1802707,0.1430096,0.08433105,-0.03143442,0.9938577,0.1497907,-6.213644,-28.49129,-21.82824,1009.218
3.991196632,-0.3039944,-0.09494619,0.2673518,-0.03415415,0.9836359,0.1560167,-6.213644,-28.49129,-21.82824,1009.218
3.996273518,-0.1802707,0.08352062,0.3283587,-0.03487904,0.9962646,0.1526737,-6.213644,-28.49129,-21.82824,1009.218
4.001347542,-0.2421326,-0.2139241,0.145338,-0.03379227,0.9899371,0.1512305,-6.213644,-28.49129,-21.82824,1009.218
4.006423473,-0.3658563,-0.09494619,0.2063449,-0.03525796,0.9904137,0.152671,-6.213644,-28.49129,-21.82824,1009.217
4.011499405,-0.3658563,0.02403168,0.2673518,-0.03327814,0.9879596,0.1464389,-6.213633,-28.87245,-21.82248,1009.217
4.016575813,-0.1802707,-0.4518798,-0.03768278,-0.03523432,0.988938,0.1507543,-6.213633,-28.87245,-21.82248,1009.217
4.021655560,-0.1802707,-0.3329019,-0.3427173,-0.03525715,0.9904174,0.1531499,-6.213633,-28.87245,-21.82248,1009.217
4.026726723,-0.1184088,-0.3329019,-0.09868971,-0.0343194,0.9923832,0.1536279,-6.213633,-28.87245,-21.82248,1009.217
4.031802654,-0.2421326,-0.09494619,-0.1596966,-0.03478222,0.9914279,0.1569808,-6.213633,-28.87245,-21.82248,1009.217
4.036878586,-0.3039944,-0.2139241,-0.1596966,-0.03825445,0.9947646,0.1541173,-6.213633,-28.87245,-21.82248,1009.217
4.041954041,-0.3039944,-0.2139241,-0.1596966,-0.02895852,0.991455,0.1493046,-6.213633,-28.87245,-21.82248,1009.217
4.047029972,-0.3039944,-0.4518798,-0.03768278,-0.02899104,0.9928902,0.1459531,-6.213633,-28.87245,-21.82248,1009.217
4.052105904,-0.1184088,-0.3923909,0.08433105,-0.03037539,0.9895149,0.1531381,-6.213633,-28.87245,-21.82248,1009.217
4.057181835,-0.1184088,-0.3329019,0.2063449,-0.03140762,0.9929242,0.1550583,-6.600307,-28.49327,-22.28543,1009.217
4.062257290,-0.6133038,-0.5113687,0.08433105,-0.0382496,0.9947867,0.1569909,-6.600307,-28.49327,-22.28543,1009.217
4.067333221,-0.3658563,-0.2139241,0.2673518,-0.03047229,0.9948791,0.1540995,-6.600307,-28.49327,-22.28543,1009.217
4.069871426,-0.3039944,-0.2139241,0.08433105,-0.03573297,0.9899306,0.1541085,-6.600307,-28.49327,-22.28543,1009.217
4.074947357,-0.3039944,-0.3329019,0.08433105,-0.0371905,0.9899164,0.1550697,-6.600307,-28.49327,-22.28543,1009.217
4.080023289,-0.5514419,-0.2139241,0.2063449,-0.03521641,0.987964,0.1507536,-6.600307,-28.49327,-22.28543,1009.217
4.085098267,-0.48958,-0.273413,0.2673518,-0.0328692,0.9928917,0.1536248,-6.600307,-28.49327,-22.28543,1009.217
4.090174198,-0.4277182,-0.1544351,0.2673518,-0.03291317,0.9953303,0.1541054,-6.600307,-28.49327,-22.28543,1009.217
4.095250130,-0.3658563,-0.03545725,0.145338,-0.03183697,0.9894824,0.1517047,-6.600307,-28.49327,-22.28543,1009.217
4.100326538,-0.3039944,0.02403168,0.145338,-0.03716782,0.9894919,0.1632111,-6.600307,-28.49327,-22.28543,1009.217
4.105401516,-0.5514419,0.02403168,0.08433105,-0.03005352,0.9988005,0.1564956,-6.211517,-29.24862,-21.36231,1009.217
4.110477448,-0.2421326,0.08352062,0.02332413,-0.03718566,0.9899385,0.1579433,-6.211517,-29.24862,-21.36231,1009.217
4.115556240,-0.5514419,0.08352062,0.02332413,-0.03622096,0.9899161,0.1531518,-6.211517,-29.24862,-21.36231,1009.217
4.120629311,-0.2421326,0.1430096,-0.09868971,-0.03374191,0.9880553,0.1598499,-6.211517,-29.24862,-21.36231,1009.217
4.125704765,-0.3039944,0.08352062,0.2063449,-0.03432681,0.993405,0.1598545,-6.211517,-29.24862,-21.36231,1009.215
4.130780697,-0.3039944,0.08352062,-0.03768278,-0.03081303,0.9876186,0.1608007,-6.211517,-29.24862,-21.36231,1009.215
4.135856628,-0.3039944,0.2024985,-0.03768278,-0.03326045,0.9885678,0.1622437,-6.211517,-29.24862,-21.36231,1009.215
4.140932560,-0.3039944,0.08352062,-0.09868971,-0.03428445,0.990959,0.1584162,-6.211517,-29.24862,-21.36231,1009.215
4.146013260,-0.2421326,0.02403168,0.145338,-0.0309473,0.994396,0.1555371,-6.211517,-29.24862,-21.36231,1009.215
4.151083946,-0.6133038,0.08352062,0.02332413,-0.03625525,0.9923987,0.1593794,-6.211517,-29.24862,-21.36231,1009.215
4.156159878,-0.3039944,0.2024985,-0.03768278,-0.0362333,0.9914432,0.1617734,-5.829073,-28.87545,-21.81969,1009.215
4.161235809,-0.48958,0.1430096,0.02332413,-0.0376981,0.991396,0.1584243,-5.829073,-28.87545,-21.81969,1009.215
4.166311264,-0.4277182,0.02403168,0.02332413,-0.03573135,0.9899379,0.1550664,-5.829073,-28.87545,-21.81969,1009.215
4.171387196,-0.3039944,0.08352062,0.08433105,-0.03474155,0.989502,0.1598531,-5.829073,-28.87545,-21.81969,1009.215
4.176463127,-0.48958,0.02403168,0.2673518,-0.03666272,0.9885287,0.1636883,-5.829073,-28.87545,-21.81969,1009.215
4.181539059,-0.3039944,0.3214763,0.02332413,-0.03621773,0.9899307,0.1550675,-5.829073,-28.87545,-21.81969,1009.215
4.186618328,-0.4277182,0.1430096,0.145338,-0.03576556,0.9918932,0.1560255,-5.829073,-28.87545,-21.81969,1009.215
4.191690445,-0.4277182,0.02403168,0.08433105,-0.03770794,0.9924067,0.1632142,-5.829073,-28.87545,-21.81969,1009.215
4.196766377,-0.5514419,0.2619874,-0.2817104,-0.04008364,0.9889325,0.1593861,-5.829073,-28.87545,-21.81969,1009.215
4.201842308,-0.5514419,0.2619874,0.145338,-0.03572408,0.989971,0.1593767,-5.829073,-28.87545,-21.81969,1009.215
4.206923008,-0.3658563,0.08352062,0.145338,-0.03622589,0.9904214,0.1555468,-6.213633,-28.87245,-21.82248,1009.215
4.211993694,-0.1802707,0.08352062,0.2063449,-0.03667651,0.9889937,0.1608151,-6.213633,-28.87245,-21.82248,1009.213
4.217073441,-0.1802707,0.02403168,0.145338,-0.03711731,0.9865552,0.1612935,-6.213633,-28.87245,-21.82248,1009.213
4.222145557,-0.5514419,0.02403168,0.08433105,-0.04016504,0.9933117,0.1589101,-6.213633,-28.87245,-21.82248,1009.213
4.227220535,-0.1802707,0.2024985,-0.09868971,-0.0357787,0.9934165,0.1641682,-6.213633,-28.87245,-21.82248,1009.213
4.232296944,-0.1802707,-0.3329019,-0.09868971,-0.03723859,0.9928641,0.1584241,-6.213633,-28.87245,-21.82248,1009.213
4.234834671,-0.2421326,-0.2139241,0.02332413,-0.03092535,0.9934403,0.157931,-6.213633,-28.87245,-21.82248,1009.213
4.239910603,-0.3658563,-0.2139241,0.2063449,-0.0348441,0.9948404,0.157462,-6.213633,-28.87245,-21.82248,1009.213
4.244986534,-0.3039944,-0.1544351,-0.03768278,-0.03526126,0.9909264,0.1560238,-6.213633,-28.87245,-21.82248,1009.213
4.250061989,-0.4277182,-0.1544351,0.08433105,-0.03479367,0.9924312,0.1608129,-6.213633,-28.87245,-21.82248,1009.213
4.255137920,-0.3039944,-0.1544351,0.08433105,-0.04061729,0.9918767,0.1632206,-6.598181,-29.2506,-21.81951,1009.213
4.260213852,-0.3658563,-0.2139241,0.08433105,-0.03863835,0.9899464,0.161778,-6.598181,-29.2506,-21.81951,1009.213
4.265294552,-0.2421326,-0.1544351,0.02332413,-0.037668,0.9899497,0.160339,-6.598181,-29.2506,-21.81951,1009.213
4.270365238,-0.1802707,-0.2139241,-0.03768278,-0.03723125,0.9923697,0.157466,-6.598181,-29.2506,-21.81951,1009.213
4.275441170,-0.4277182,-0.1544351,0.02332413,-0.03135807,0.9910387,0.1631987,-6.598181,-29.2506,-21.81951,1009.213
4.280517101,-0.1802707,-0.1544351,-0.03768278,-0.03722398,0.9924028,0.1617763,-6.598181,-29.2506,-21.81951,1009.213
4.285593033,-0.3658563,-0.1544351,-0.03768278,-0.03566631,0.9870674,0.1617694,-6.598181,-29.2506,-21.81951,1009.213
4.290668488,-0.2421326,-0.09494619,-0.03768278,-0.03674655,0.9928969,0.1617755,-6.598181,-29.2506,-21.81951,1009.213
4.295744419,-0.2421326,-0.3923909,0.145338,-0.03185084,0.9904748,0.1540999,-6.598181,-29.2506,-21.81951,1009.213
4.300820351,-0.1802707,-0.2139241,-0.09868971,-0.03578758,0.9933761,0.1589,-5.826958,-29.25163,-21.35953,1009.213
4.305896282,-0.1184088,-0.2139241,0.02332413,-0.02937994,0.9891046,0.1612773,-5.826958,-29.25163,-21.35953,1009.213
4.310971260,-0.1802707,0.02403168,-0.09868971,-0.02942626,0.9910048,0.1550525,-5.826958,-29.25163,-21.35953,1009.213
4.316047669,-0.1184088,-0.09494619,-0.09868971,-0.03382824,0.9929398,0.1617688,-5.826958,-29.25163,-21.35953,1009.213
4.321123600,-0.05654699,-0.2139241,0.08433105,-0.03375241,0.9880075,0.1536239,-5.826958,-29.25163,-21.35953,1009.213
4.326199532,-0.1802707,-0.09494619,-0.03768278,-0.02739212,0.9872147,0.1651029,-5.826958,-29.25163,-21.35953,1009.213
4.331274510,-0.1802707,-0.03545725,-0.03768278,-0.03294665,0.9978167,0.1608119,-5.826958,-29.25163,-21.35953,1009.213
4.336350441,-0.1184088,0.1430096,-0.1596966,-0.03614608,0.9860348,0.1550649,-5.826958,-29.25163,-21.35953,1009.213
4.341426373,0.005314875,0.1430096,-0.09868971,-0.03274961,0.987103,0.1608049,-5.826958,-29.25163,-21.35953,1009.213
4.346502781,-0.1184088,0.1430096,0.2063449,-0.03045115,0.9939198,0.1560145,-5.826958,-29.25163,-21.35953,1009.213
4.351577759,0.06717674,0.4404542,0.145338,-0.03336535,0.9933679,0.1531474,-6.211517,-29.24862,-21.36231,1009.213
4.356653690,0.06717674,0.2024985,0.2063449,-0.03181179,0.9885415,0.1560143,-6.211517,-29.24862,-21.36231,1009.213
4.361729622,-0.2421326,0.3214763,0.145338,-0.03339391,0.9953488,0.157459,-6.211517,-29.24862,-21.36231,1009.213
4.366805554,-0.1184088,0.2024985,0.145338,-0.03283426,0.9914675,0.1584131,-6.211517,-29.24862,-21.36231,1009.213
4.371881485,-0.1802707,0.3809653,0.145338,-0.03232673,0.9905154,0.1603271,-6.211517,-29.24862,-21.36231,1009.213
4.376956940,-0.2421326,0.1430096,0.145338,-0.02990942,0.9910124,0.1569693,-6.211517,-29.24862,-21.36231,1009.213
4.382032871,-0.2421326,0.2619874,0.145338,-0.03330677,0.990468,0.156019,-6.211517,-29.24862,-21.36231,1009.213
4.387108803,-0.3658563,0.2024985,0.2063449,-0.03082933,0.9885999,0.1617592,-6.211517,-29.24862,-21.36231,1009.213
4.392184734,-0.3039944,0.3809653,0.08433105,-0.03032657,0.9870983,0.1555311,-6.211517,-29.24862,-21.36231,1009.213
4.397260189,-0.1802707,0.3214763,0.2673518,-0.03526868,0.9919481,0.1622504,-6.596088,-28.86447,-21.37085,1009.213
4.402336121,-0.2421326,0.3809653,0.02332413,-0.03378427,0.9905012,0.1612883,-6.596088,-28.86447,-21.37085,1009.213
4.404874325,-0.3039944,0.3809653,0.08433105,-0.03195516,0.9968606,0.161288,-6.596088,-28.86447,-21.37085,1009.213
4.409950256,-0.2421326,0.2024985,-0.03768278,-0.02937179,0.988614,0.160798,-6.596088,-28.86447,-21.37085,1009.213
4.415025234,-0.05654699,0.2619874,0.02332413,-0.03390716,0.9968026,0.157461,-6.596088,-28.86447,-21.37085,1009.213
4.420101166,-0.3039944,0.2619874,-0.03768278,-0.03429003,0.9904059,0.1497952,-6.596088,-28.86447,-21.37085,1009.213
4.425177097,-0.1184088,0.3214763,-0.09868971,-0.03817553,0.9909018,0.1584251,-6.596088,-28.86447,-21.37085,1009.213
4.430253506,-0.05654699,0.2619874,-0.03768278,-0.03619491,0.9884514,0.1526719,-6.596088,-28.86447,-21.37085,1009.213
4.435329437,-0.1802707,0.08352062,0.08433105,-0.03471138,0.9875283,0.1564993,-6.596088,-28.86447,-21.37085,1009.213
4.440404415,0.005314875,0.3809653,0.08433105,-0.02843154,0.9900635,0.1574443,-6.596088,-28.86447,-21.37085,1009.213
4.445480347,0.1290386,0.08352062,0.2673518,-0.03227945,0.987564,0.1564938,-6.213621,-29.2536,-21.81673,1009.213
4.450556278,0.06717674,0.1430096,0.2063449,-0.03374345,0.9875205,0.1536235,-6.213621,-29.2536,-21.81673,1009.213
4.455631733,0.1290386,0.2619874,0.145338,-0.03183697,0.9894824,0.1517047,-6.213621,-29.2536,-21.81673,1009.211
4.460707665,0.06717674,0.3214763,0.3283587,-0.03229333,0.9885564,0.158889,-6.213621,-29.2536,-21.81673,1009.211
4.465783596,0.005314875,-0.03545725,0.2673518,-0.0299818,0.9943772,0.1512245,-6.213621,-29.2536,-21.81673,1009.211
4.470859528,0.1909005,0.08352062,0.2063449,-0.03813067,0.9879395,0.153155,-6.213621,-29.2536,-21.81673,1009.211
4.475935459,0.1909005,0.1430096,0.02332413,-0.03335324,0.9934229,0.1603312,-6.213621,-29.2536,-21.81673,1009.211
4.481010914,0.005314875,-0.1544351,0.02332413,-0.03525965,0.9909337,0.1569816,-6.213621,-29.2536,-21.81673,1009.211
4.486086846,0.2527623,0.02403168,0.08433105,-0.03483272,0.9943644,0.1588984,-6.213621,-29.2536,-21.81673,1009.211
4.491162777,0.06717674,0.02403168,0.145338,-0.03666918,0.9884994,0.1598569,-6.213621,-29.2536,-21.81673,1009.211
4.496238709,0.06717674,-0.2139241,0.02332413,-0.03485629,0.9953127,0.1555466,-5.829062,-29.2566,-21.81394,1009.211
4.501317978,0.1290386,-0.09494619,0.145338,-0.03717017,0.9889535,0.1565059,-5.829062,-29.2566,-21.81394,1009.211
4.506390095,-0.1184088,-0.03545725,0.02332413,-0.0327121,0.984635,0.1564929,-5.829062,-29.2566,-21.81394,1009.211
4.511466026,0.1290386,0.08352062,-0.2207035,-0.03626332,0.992362,0.1545902,-5.829062,-29.2566,-21.81394,1009.211
4.516541958,0.005314875,0.02403168,0.02332413,-0.03579823,0.9943832,0.163211,-5.829062,-29.2566,-21.81394,1009.211
4.521617413,0.005314875,-0.03545725,-0.3427173,-0.03085451,0.9895408,0.1574495,-5.829062,-29.2566,-21.81394,1009.211
4.526695252,0.005314875,-0.1544351,-0.2817104,-0.03091558,0.9929571,0.1584096,-5.829062,-29.2566,-21.81394,1009.211
4.531769276,-0.1802707,0.08352062,-0.3427173,-0.03073889,0.9832063,0.1569664,-5.829062,-29.2566,-21.81394,1009.211
4.536845207,-0.1184088,-0.03545725,-0.2207035,-0.0367017,0.9899346,0.1565054,-5.829062,-29.2566,-21.81394,1009.21
4.541925907,0.06717674,0.02403168,-0.03768278,-0.03042832,0.9924405,0.1536189,-6.213633,-28.87245,-21.82248,1009.21
4.546996594,0.1909005,0.08352062,-0.4647312,-0.028504,0.9939557,0.1569679,-6.213633,-28.87245,-21.82248,1009.21
4.552072525,0.1290386,0.08352062,-0.1596966,-0.03177604,0.9871209,0.1612816,-6.213633,-28.87245,-21.82248,1009.21
4.557148457,0.2527623,0.02403168,0.145338,-0.02603706,0.9920399,0.1564821,-6.213633,-28.87245,-21.82248,1009.21
4.562223911,0.3146242,0.2024985,-0.03768278,-0.0284576,0.9915282,0.1579242,-6.213633,-28.87245,-21.82248,1009.21
4.567299843,0.2527623,-0.09494619,0.145338,-0.02997864,0.9949193,0.1584087,-6.213633,-28.87245,-21.82248,1009.21
4.572375775,0.1909005,-0.03545725,0.08433105,-0.03439274,0.9967992,0.1579411,-6.213633,-28.87245,-21.82248,1009.21
4.574913502,0.06717674,0.1430096,0.2673518,-0.03732654,0.9977413,0.1593852,-6.213633,-28.87245,-21.82248,1009.212
4.579989433,0.1290386,0.08352062,0.145338,-0.03328966,0.9894903,0.1555394,-6.213633,-28.87245,-21.82248,1009.212
4.585064888,-0.1184088,0.02403168,0.3283587,-0.03032577,0.987102,0.15601,-6.213633,-28.87245,-21.82248,1009.212
4.590140820,0.06717674,0.2619874,0.02332413,-0.02742787,0.9886353,0.1598357,-5.829062,-29.2566,-21.81394,1009.212
4.595216751,0.1909005,0.1430096,0.145338,-0.03145079,0.9953665,0.1560177,-5.829062,-29.2566,-21.81394,1009.212
4.600292683,0.1909005,0.3214763,0.145338,-0.03318549,0.9841592,0.1588883,-5.829062,-29.2566,-21.81394,1009.212
4.605368138,0.1290386,0.08352062,-0.09868971,-0.03242356,0.9953521,0.15602,-5.829062,-29.2566,-21.81394,1009.212
4.610444069,0.1290386,0.3809653,-0.03768278,-0.0299492,0.9924146,0.1493075,-5.829062,-29.2566,-21.81394,1009.212
4.615520001,0.1909005,0.5594321,-0.03768278,-0.03141173,0.9934332,0.1579321,-5.829062,-29.2566,-21.81394,1009.212
4.620595932,0.06717674,0.4999432,-0.1596966,-0.03043816,0.9934512,0.1584088,-5.829062,-29.2566,-21.81394,1009.214
4.625671387,0.005314875,0.1430096,-0.03768278,-0.03384608,0.9933864,0.156501,-5.829062,-29.2566,-21.81394,1009.214
4.630747795,0.1909005,0.4999432,-0.03768278,-0.02951751,0.9963948,0.1593664,-5.829062,-29.2566,-21.81394,1009.214
4.635823250,0.1290386,0.67841,-0.3427173,-0.03132217,0.9885634,0.1579289,-5.829062,-29.2566,-21.81394,1009.214
4.640899182,0.1290386,0.5594321,-0.09868971,-0.03574853,0.991443,0.1608144,-6.596088,-28.86447,-21.37085,1009.214
4.645974636,0.2527623,0.3809653,-0.2817104,-0.03631714,0.9958113,0.1598606,-6.596088,-28.86447,-21.37085,1009.214
4.651050568,0.2527623,0.4999432,-0.1596966,-0.03382979,0.9924051,0.1555425,-6.596088,-28.86447,-21.37085,1009.214
4.656126499,0.1909005,0.4999432,-0.09868971,-0.02940262,0.9895292,0.1531359,-6.596088,-28.86447,-21.37085,1009.214
4.661202431,0.06717674,0.5594321,-0.09868971,-0.03131395,0.9875453,0.1521812,-6.596088,-28.86447,-21.37085,1009.214
4.666277409,0.005314875,0.4999432,-0.1596966,-0.03489373,0.9972534,0.1545901,-6.596088,-28.86447,-21.37085,1009.214
4.671353340,-0.2421326,0.3809653,0.08433105,-0.03333451,0.9924527,0.1608095,-6.596088,-28.86447,-21.37085,1009.214
4.676429749,0.06717674,0.3809653,0.02332413,-0.03179226,0.9875749,0.1569715,-6.596088,-28.86447,-21.37085,1009.214
4.681505680,0.06717674,0.2024985,0.145338,-0.03191442,0.9944074,0.1588918,-6.596088,-28.86447,-21.37085,1009.214
4.686580658,0.005314875,0.3809653,0.3283587,-0.03855195,0.9845345,0.1545906,-6.213633,-28.87245,-21.82248,1009.214
4.691656590,-0.1184088,0.1430096,0.2063449,-0.03183785,0.9900061,0.1564942,-6.213633,-28.87245,-21.82248,1009.214
4.696732521,0.06717674,0.2024985,0.145338,-0.03381114,0.9919622,0.1612892,-6.213633,-28.87245,-21.82248,1009.214
4.701808453,-0.05654699,0.08352062,0.2063449,-0.03329047,0.9894866,0.1550605,-6.213633,-28.87245,-21.82248,1009.212
4.706883907,0.1290386,0.2619874,0.2063449,-0.03274954,0.9865755,0.1555364,-6.213633,-28.87245,-21.82248,1009.212
4.711959839,0.1290386,0.08352062,0.3283587,-0.03625921,0.991853,0.1517163,-6.213633,-28.87245,-21.82248,1009.212
4.717035771,0.2527623,0.1430096,0.02332413,-0.03182566,0.9895338,0.1584096,-6.213633,-28.87245,-21.82248,1009.212
4.722111702,-0.05654699,0.2024985,0.2063449,-0.03625517,0.9918714,0.1541109,-6.213633,-28.87245,-21.82248,1009.212
4.727187157,0.06717674,0.08352062,0.08433105,-0.03376225,0.9890183,0.1584138,-6.213633,-28.87245,-21.82248,1009.212
4.732263088,0.06717674,-0.273413,-0.1596966,-0.03479037,0.9919185,0.1574601,-6.213633,-28.87245,-21.82248,1009.212
4.737339020,-0.1184088,0.02403168,0.2673518,-0.03471629,0.9880336,0.1588943,-5.826958,-29.25163,-21.35953,1009.212
4.742414951,-0.05654699,-0.1544351,-0.03768278,-0.030865,0.989493,0.1512235,-5.826958,-29.25163,-21.35953,1009.21
4.744953156,0.06717674,-0.03545725,0.08433105,-0.03724593,0.9933584,0.1593823,-5.826958,-29.25163,-21.35953,1009.21
4.750028134,-0.05654699,0.1430096,-0.03768278,-0.03676512,0.9928125,0.1507602,-5.826958,-29.25163,-21.35953,1009.21
4.755107403,0.1290386,-0.1544351,-0.09868971,-0.03672203,0.9908975,0.1550692,-5.826958,-29.25163,-21.35953,1009.21
4.760180474,0.1909005,-0.3329019,-0.03768278,-0.0351554,0.9850752,0.155062,-5.826958,-29.25163,-21.35953,1009.21
4.765256405,0.2527623,-0.3329019,0.02332413,-0.03437886,0.9958069,0.1555458,-5.826958,-29.25163,-21.35953,1009.21
4.770331383,0.376486,-0.1544351,-0.2207035,-0.03236651,0.9919176,0.1526652,-5.826958,-29.25163,-21.35953,1009.21
4.775407314,0.1290386,-0.2139241,-0.09868971,-0.03094803,0.9938648,0.1497896,-5.826958,-29.25163,-21.35953,1009.21
4.780483246,0.376486,-0.2139241,-0.2817104,-0.03432755,0.9928739,0.1541071,-5.826958,-29.25163,-21.35953,1009.21
4.785559654,0.2527623,-0.273413,0.08433105,-0.02742133,0.9881372,0.1583986,-6.980646,-28.86147,-21.37364,1009.21
4.790634632,0.06717674,-0.2139241,-0.03768278,-0.02697473,0.9895466,0.1507357,-6.980646,-28.86147,-21.37364,1009.21
4.795710564,0.06717674,-0.3329019,0.02332413,-0.03240403,0.9943855,0.1569772,-6.980646,-28.86147,-21.37364,1009.21
4.800786495,0.06717674,-0.3329019,-0.09868971,-0.03140931,0.9934442,0.1593689,-6.980646,-28.86147,-21.37364,1009.21
4.805862427,0.1290386,-0.3923909,-0.09868971,-0.03139375,0.9919319,0.152663,-6.980646,-28.86147,-21.37364,1009.21
4.810937881,0.06717674,-0.273413,0.02332413,-0.02888122,0.9875847,0.1526545,-6.980646,-28.86147,-21.37364,1009.21
4.816013813,0.1290386,-0.1544351,-0.03768278,-0.03230713,0.9890214,0.1560158,-6.980646,-28.86147,-21.37364,1009.21
4.821089745,-0.05654699,-0.1544351,-0.09868971,-0.03325303,0.9875461,0.156017,-6.980646,-28.86147,-21.37364,1009.21
4.826165676,-0.05654699,-0.273413,0.02332413,-0.03390386,0.99629,0.1541083,-6.980646,-28.86147,-21.37364,1009.21
4.831243038,0.06717674,-0.09494619,0.145338,-0.03184754,0.9899621,0.1507471,-6.980646,-28.86147,-21.37364,1009.21
4.836317062,-0.1184088,-0.09494619,0.02332413,-0.03333275,0.9914052,0.1512304,-6.213633,-28.87245,-21.82248,1009.21
4.841392994,-0.1184088,0.02403168,0.02332413,-0.03367592,0.9841337,0.1564948,-6.213633,-28.87245,-21.82248,1009.21
4.846468925,0.06717674,-0.03545725,-0.03768278,-0.02941246,0.9905399,0.1579258,-6.213633,-28.87245,-21.82248,1009.21
4.851544857,0.005314875,-0.03545725,-0.09868971,-0.03088953,0.9914925,0.1579297,-6.213633,-28.87245,-21.82248,1009.21
4.856620312,-0.1184088,-0.1544351,0.2063449,-0.02691373,0.9866577,0.155044,-6.213633,-28.87245,-21.82248,1009.21
4.861696243,0.005314875,0.2024985,-0.09868971,-0.03370675,0.9850489,0.1488327,-6.213633,-28.87245,-21.82248,1009.21
4.866772175,-0.05654699,0.08352062,0.02332413,-0.02752058,0.992963,0.1526547,-6.213633,-28.87245,-21.82248,1009.21
4.871851921,-0.1184088,0.02403168,0.08433105,-0.03039653,0.9904742,0.151223,-6.213633,-28.87245,-21.82248,1009.21
4.876923561,0.005314875,0.2024985,0.02332413,-0.03333444,0.9919253,0.155541,-6.213633,-28.87245,-21.82248,1009.21
4.881999493,0.06717674,0.02403168,-0.09868971,-0.03470242,0.9870413,0.156499,-7.365206,-28.85847,-21.37643,1009.21
4.887075424,0.005314875,0.1430096,0.02332413,-0.03138729,0.9919612,0.1564944,-7.365206,-28.85847,-21.37643,1009.21
4.892151356,-0.05654699,0.02403168,0.02332413,-0.03231205,0.9895267,0.1584107,-7.365206,-28.85847,-21.37643,1009.21
4.897226810,0.005314875,0.2024985,0.02332413,-0.02657307,0.9944456,0.1536113,-7.365206,-28.85847,-21.37643,1009.21
4.902302742,-0.1184088,0.3214763,0.2063449,-0.03332791,0.9914273,0.1541039,-7.365206,-28.85847,-21.37643,1009.21
4.907378674,-0.2421326,0.1430096,0.02332413,-0.02955245,0.997819,0.1545781,-7.365206,-28.85847,-21.37643,1009.21
4.909916401,-0.05654699,0.2619874,0.08433105,-0.0298882,0.9895257,0.1536159,-7.365206,-28.85847,-21.37643,1009.21
4.914991856,-0.05654699,0.3214763,0.145338,-0.03525392,0.990432,0.1550656,-7.365206,-28.85847,-21.37643,1009.21
4.920067787,0.005314875,0.3214763,0.08433105,-0.03328805,0.9894977,0.1564973,-7.365206,-28.85847,-21.37643,1009.21
4.925143719,0.005314875,0.3214763,0.145338,-0.03136277,0.9899619,0.1497882,-7.365206,-28.85847,-21.37643,1009.21
4.930219650,-0.1184088,0.2619874,0.145338,-0.03233238,0.9904897,0.1569746,-6.596088,-28.86447,-21.37085,1009.21
4.935295582,-0.1802707,-0.03545725,0.02332413,-0.03427469,0.9904757,0.1588948,-6.596088,-28.86447,-21.37085,1009.21
4.940371037,-0.05654699,0.1430096,-0.09868971,-0.03087881,0.989958,0.1483503,-6.596088,-28.86447,-21.37085,1009.21
4.945446968,-0.05654699,0.1430096,-0.03768278,-0.0352962,0.9923506,0.1512355,-6.596088,-28.86447,-21.37085,1009.209
4.950522900,0.005314875,0.08352062,-0.2207035,-0.03567027,0.9865216,0.1541063,-6.596088,-28.86447,-21.37085,1009.209
4.955598831,-0.2421326,0.2024985,-0.2817104,-0.03190707,0.993913,0.1579336,-6.596088,-28.86447,-21.37085,1009.209
4.960674286,-0.3039944,0.08352062,0.145338,-0.03577202,0.9918638,0.1521941,-6.596088,-28.86447,-21.37085,1009.209
4.965750217,-0.1184088,0.2024985,0.02332413,-0.03045768,0.9944178,0.1574516,-6.596088,-28.86447,-21.37085,1009.209
4.970826149,-0.3658563,0.02403168,0.2063449,-0.03141085,0.9929095,0.1531426,-6.596088,-28.86447,-21.37085,1009.209
4.975906849,-0.05654699,0.02403168,-0.1596966,-0.034827,0.9938627,0.1569824,-6.596088,-28.86447,-21.37085,1009.209
4.980977535,-0.2421326,-0.1544351,0.08433105,-0.03584132,0.9962981,0.158902,-6.211517,-29.24862,-21.36231,1009.209
4.986053467,-0.05654699,0.02403168,0.02332413,-0.03039653,0.9904742,0.151223,-6.211517,-29.24862,-21.36231,1009.213
4.991129398,-0.2421326,0.08352062,0.2673518,-0.03535002,0.9957999,0.1565059,-6.211517,-29.24862,-21.36231,1009.213
4.996205330,-0.4277182,-0.2139241,0.08433105,-0.03239588,0.9938948,0.1564979,-6.211517,-29.24862,-21.36231,1009.213
5.001280308,-0.4277182,-0.03545725,-0.1596966,-0.03766881,0.9899461,0.1598601,-6.211517,-29.24862,-21.36231,1009.213
5.006356716,-0.3658563,0.08352062,0.02332413,-0.03483845,0.9948661,0.1608145,-6.211517,-29.24862,-21.36231,1009.213
5.011433125,-0.4277182,-0.2139241,-0.03768278,-0.03475608,0.9894358,0.1512324,-6.211517,-29.24862,-21.36231,1009.213
5.016508579,-0.1184088,-0.03545725,0.02332413,-0.03321882,0.9855908,0.1550579,-6.211517,-29.24862,-21.36231,1009.213
5.021584511,-0.3658563,-0.2139241,0.145338,-0.03080892,0.9871095,0.1579269,-6.211517,-29.24862,-21.36231,1009.213
5.026659489,-0.3039944,-0.03545725,0.2063449,-0.03141005,0.9929131,0.1536215,-6.598192,-28.86944,-21.82527,1009.211
5.031735420,-0.3039944,0.2024985,0.2063449,-0.02899934,0.9944356,0.1569694,-6.598192,-28.86944,-21.82527,1009.211
5.036811829,-0.5514419,-0.3923909,0.08433105,-0.03715064,0.9879868,0.1574631,-6.598192,-28.86944,-21.82527,1009.211
5.041886806,-1.541232,-0.03545725,0.08433105,-0.03378574,0.9894391,0.1497934,-6.598192,-28.86944,-21.82527,1009.211
5.046962738,-0.3658563,0.02403168,0.145338,-0.03776961,0.9942371,0.1478899,-6.598192,-28.86944,-21.82527,1009.211
5.052038670,0.1290386,-0.2139241,0.2673518,-0.03574772,0.9914466,0.1612934,-6.598192,-28.86944,-21.82527,1009.211
5.057114601,-0.1184088,-0.2139241,0.2673518,-0.03101248,0.9983212,0.159371,-6.598192,-28.86944,-21.82527,1009.211
5.062190056,-0.1802707,-0.2139241,0.5723863,-0.0386879,0.9918319,0.1536376,-6.598192,-28.86944,-21.82527,1009.211
5.067265987,-0.1184088,-0.03545725,0.3283587,-0.03046583,0.9949085,0.1579309,-6.598192,-28.86944,-21.82527,1009.209
5.072341919,-0.1184088,-0.1544351,0.2673518,-0.03038765,0.9905146,0.1564912,-6.598192,-28.86944,-21.82527,1009.209
5.074880123,-0.3039944,0.02403168,0.4503725,-0.03473333,0.9884839,0.1541053,-6.213621,-29.2536,-21.81673,1009.209
5.079956055,-0.2421326,-0.09494619,0.145338,-0.03426412,0.9899961,0.1598523,-6.213621,-29.2536,-21.81673,1009.209
5.085031033,-0.2421326,-0.2139241,0.145338,-0.03091397,0.9929644,0.1593675,-6.213621,-29.2536,-21.81673,1009.209
5.090107441,0.06717674,0.02403168,0.2673518,-0.03975273,0.9972038,0.1574748,-6.213621,-29.2536,-21.81673,1009.209
5.095183373,-0.05654699,-0.1544351,0.145338,-0.03434796,0.9943643,0.1579395,-6.213621,-29.2536,-21.81673,1009.209
5.100259304,-0.1802707,-0.03545725,0.02332413,-0.03481804,0.9933758,0.1569821,-6.213621,-29.2536,-21.81673,1009.209
5.105334282,-1.108199,-0.2139241,-0.09868971,-0.03282486,0.9936211,0.1852342,-6.213621,-29.2536,-21.81673,1009.209
5.110410213,-3.458949,-0.4518798,-1.0748,-0.02709558,0.9411628,0.1301123,-6.213621,-29.2536,-21.81673,1009.208
5.115486622,1.18069,-0.3329019,-0.5257381,-0.03039847,1.015702,0.1378287,-6.213621,-29.2536,-21.81673,1009.208
5.120562553,0.4383479,-0.1544351,0.5723863,-0.04879927,1.042621,0.1900905,-6.213621,-29.2536,-21.81673,1009.208
5.125637531,-2.840331,-0.09494619,-0.09868971,-0.03674905,0.9934133,0.1656072,-6.598192,-28.86944,-21.82527,1009.208
5.130713463,-1.726817,-0.2139241,0.02332413,-0.03337442,0.9659793,0.1387627,-6.598192,-28.86944,-21.82527,1009.208
5.135789394,0.8713809,-0.2139241,-0.03768278,-0.03397584,0.9738925,0.1555314,-6.598192,-28.86944,-21.82527,1009.208
5.140865326,0.5620716,-0.09494619,0.145338,-0.03678817,0.9958739,0.1689613,-6.598192,-28.86944,-21.82527,1009.208
5.145941734,-0.5514419,-0.03545725,0.2063449,-0.03778612,0.9968005,0.1646539,-6.598192,-28.86944,-21.82527,1009.208
5.151016712,-0.6133038,-0.2139241,0.2673518,-0.03080804,0.9865858,0.1531373,-6.598192,-28.86944,-21.82527,1009.206
5.156092644,0.1290386,-0.1544351,0.145338,-0.03719388,0.9909565,0.163691,-6.598192,-28.86944,-21.82527,1009.206
5.161168575,-0.1184088,-0.09494619,0.2063449,-0.03576071,0.9919152,0.1588991,-6.598192,-28.86944,-21.82527,1009.206
5.166244507,-0.05654699,0.02403168,-0.03768278,-0.0322901,0.9885711,0.1608047,-6.598192,-28.86944,-21.82527,1009.206
5.171319962,-0.3039944,-0.09494619,0.2673518,-0.04057655,0.9894234,0.1608243,-6.980658,-28.48031,-21.37939,1009.206
5.176395893,-0.3039944,-0.09494619,0.2063449,-0.03864973,0.9904224,0.1603416,-6.980658,-28.48031,-21.37939,1009.206
5.181471825,-0.2421326,0.02403168,0.02332413,-0.03518396,0.9870562,0.1593737,-6.980658,-28.48031,-21.37939,1009.206
5.186552525,0.06717674,-0.03545725,-0.03768278,-0.03290913,0.9953486,0.1565,-6.980658,-28.48031,-21.37939,1009.206
5.191623211,0.005314875,0.02403168,0.08433105,-0.0309067,0.9929974,0.1636778,-6.980658,-28.48031,-21.37939,1009.206
5.196699143,-0.3658563,0.2024985,0.08433105,-0.03290671,0.9953597,0.1579368,-6.980658,-28.48031,-21.37939,1009.206
5.201775074,-0.3039944,0.2619874,0.3283587,-0.03030631,0.9866627,0.1622358,-6.980658,-28.48031,-21.37939,1009.206
5.206851006,-0.3039944,0.1430096,0.08433105,-0.03380299,0.9914716,0.16081,-6.980658,-28.48031,-21.37939,1009.206
5.211926460,-0.3039944,0.08352062,0.2063449,-0.03324819,0.9875681,0.1588906,-6.980658,-28.48031,-21.37939,1009.206
5.217002392,-0.3658563,0.1430096,-0.09868971,-0.03572401,0.9894435,0.1541082,-6.980658,-28.48031,-21.37939,1009.206
5.222078323,-0.1802707,0.2024985,0.145338,-0.03433012,0.9939176,0.1632074,-5.829073,-28.87545,-21.81969,1009.206
5.227154255,-0.2421326,-0.03545725,-0.03768278,-0.03087653,0.9910238,0.1603241,-5.829073,-28.87545,-21.81969,1009.206
5.232233524,-0.2421326,0.02403168,0.08433105,-0.02637119,0.983754,0.1564778,-5.829073,-28.87545,-21.81969,1009.204
5.237305641,-0.1802707,-0.09494619,0.2063449,-0.03535163,0.9957926,0.1555481,-5.829073,-28.87545,-21.81969,1009.204
5.242381573,-0.3039944,0.08352062,0.08433105,-0.03619256,0.9889898,0.1593772,-5.829073,-28.87545,-21.81969,1009.204
5.244919300,-0.05654699,0.08352062,0.2063449,-0.03701146,0.9807041,0.1603318,-5.829073,-28.87545,-21.81969,1009.204
5.249995232,-0.05654699,-0.09494619,0.2063449,-0.03577217,0.9929186,0.1627311,-5.829073,-28.87545,-21.81969,1009.204
5.255070686,0.005314875,0.1430096,0.2673518,-0.0366879,0.9894696,0.1593786,-5.829073,-28.87545,-21.81969,1009.204
5.260146618,0.06717674,-0.03545725,0.2063449,-0.03244397,0.9968425,0.1598523,-5.829073,-28.87545,-21.81969,1009.204
