Time (s),Gyroscope X (deg/s),Gyroscope Y (deg/s),Gyroscope Z (deg/s),Accelerometer X (g),Accelerometer Y (g),Accelerometer Z (g),Magnetometer X (uT),Magnetometer Y (uT),Magnetometer Z (uT),Barometer (hPa)
0.000000000,-0.1236305,0.4037498,0.2197529,-0.0361187,0.9866871,0.1766169,-5.065966,-28.89567,-23.11245,1009.313
0.005075932,-0.2473542,0.5227277,0.0367322,-0.03126873,0.9877509,0.179001,-5.065966,-28.89567,-23.11245,1009.313
0.010151863,-0.1854923,0.3442609,0.0367322,-0.03813347,0.9905654,0.1780607,-5.065966,-28.89567,-23.11245,1009.313
0.015227795,-0.3710779,0.4632387,0.2197529,-0.03374617,0.9896191,0.1732608,-5.065966,-28.89567,-23.11245,1009.313
0.020303726,-0.2473542,0.4632387,0.09773912,-0.03431154,0.9940021,0.1742226,-5.065966,-28.89567,-23.11245,1009.313
0.025379658,-0.3092161,0.225283,-0.08528163,-0.03126462,0.987242,0.1761271,-5.065966,-28.89567,-23.11245,1009.313
0.030455589,-0.3710779,0.3442609,-0.08528163,-0.03324679,0.9891576,0.1756539,-5.065966,-28.89567,-23.11245,1009.313
0.035531521,-0.3092161,0.4037498,0.0367322,-0.03511657,0.9847241,0.172782,-5.065966,-28.89567,-23.11245,1009.315
0.040607452,-0.1236305,0.2847719,0.0367322,-0.03079446,0.987703,0.171816,-5.065966,-28.89567,-23.11245,1009.315
0.045683384,-0.06176861,0.2847719,-0.1462885,-0.03320532,0.9872354,0.1790051,-5.065966,-28.89567,-23.11245,1009.315
0.050759792,-0.1236305,0.1657941,-0.1462885,-0.03483214,0.9959503,0.1751829,-5.448442,-28.12538,-22.67233,1009.315
0.055835724,-0.06176861,0.2847719,0.0367322,-0.03520782,0.990114,0.1770958,-5.448442,-28.12538,-22.67233,1009.315
0.060911655,-0.06176861,0.225283,-0.02427471,-0.03276041,0.9891648,0.1756528,-5.448442,-28.12538,-22.67233,1009.315
0.065987587,-0.1854923,0.225283,-0.02427471,-0.03073426,0.9848105,0.1756455,-5.448442,-28.12538,-22.67233,1009.315
0.071063519,-0.06176861,0.2847719,0.09773912,-0.03033582,0.9896948,0.1766054,-5.448442,-28.12538,-22.67233,1009.315
0.076139450,-0.1854923,0.2847719,-0.02427471,-0.0332777,0.9906002,0.1732603,-5.448442,-28.12538,-22.67233,1009.315
0.081215382,-0.1854923,0.2847719,-0.08528163,-0.03429371,0.9935555,0.1794905,-5.448442,-28.12538,-22.67233,1009.315
0.086291313,-0.06176861,0.4037498,-0.1462885,-0.03466205,0.9872249,0.1804453,-5.448442,-28.12538,-22.67233,1009.315
0.091366768,-0.1854923,0.4037498,0.0367322,-0.03380402,0.99305,0.1761366,-5.448442,-28.12538,-22.67233,1009.315
0.096443176,-0.2473542,0.1657941,0.09773912,-0.0332175,0.9877077,0.1770898,-5.448442,-28.12538,-22.67233,1009.315
0.101519108,-0.3092161,0.2847719,0.0367322,-0.03462043,0.984248,0.1732595,-5.450523,-28.89267,-23.11523,1009.315
0.106594563,-0.3092161,0.1063051,-0.08528163,-0.03084658,0.9906323,0.1727758,-5.450523,-28.89267,-23.11523,1009.315
0.111670494,-0.2473542,0.1657941,-0.08528163,-0.03418374,0.9871954,0.1756549,-5.450523,-28.89267,-23.11523,1009.315
0.116746426,-0.3710779,0.1063051,-0.08528163,-0.0352021,0.9896123,0.1751798,-5.450523,-28.89267,-23.11523,1009.315
0.121822357,-0.3092161,0.1063051,-0.1462885,-0.03620335,0.9910516,0.1742252,-5.450523,-28.89267,-23.11523,1009.315
0.126898289,-0.3092161,0.1063051,-0.08528163,-0.03605924,0.9832636,0.1746989,-5.450523,-28.89267,-23.11523,1009.315
0.131974220,-0.2473542,0.1657941,-0.1462885,-0.03708413,0.9861785,0.1756609,-5.450523,-28.89267,-23.11523,1009.315
0.137050152,-0.2473542,-0.01267273,-0.2072954,-0.03613016,0.9876904,0.1804489,-5.450523,-28.89267,-23.11523,1009.315
0.142126083,-0.1854923,0.225283,-0.08528163,-0.03562659,0.9861926,0.1746997,-5.450523,-28.89267,-23.11523,1009.315
0.144664288,-0.2473542,-0.07216167,-0.1462885,-0.03472144,0.9901212,0.1770947,-5.450523,-28.89267,-23.11523,1009.315
0.149740219,-0.06176861,-0.07216167,-0.08528163,-0.0322415,0.9877366,0.1790032,-5.063862,-28.89069,-22.65803,1009.315
0.154816151,-0.1854923,-0.01267273,-0.1462885,-0.03268803,0.9857999,0.1813977,-5.063862,-28.89069,-22.65803,1009.315
0.159892082,-0.1854923,-0.1911395,-0.1462885,-0.03178683,0.9891828,0.1761295,-5.063862,-28.89069,-22.65803,1009.316
0.164968014,-0.06176861,0.0468162,-0.08528163,-0.03174616,0.9872568,0.1790018,-5.063862,-28.89069,-22.65803,1009.316
0.170043945,0.06195511,-0.1911395,-0.1462885,-0.03861486,0.9895255,0.1703984,-5.063862,-28.89069,-22.65803,1009.316
0.175119877,-0.1236305,-0.07216167,-0.2683024,-0.03428717,0.9930575,0.1780534,-5.063862,-28.89069,-22.65803,1009.316
0.180195808,0.123817,-0.3101174,-0.2683024,-0.0342465,0.9911317,0.1809256,-5.063862,-28.89069,-22.65803,1009.316
0.185271740,0.06195511,0.1063051,-0.3903162,-0.0361179,0.9866908,0.1770958,-5.063862,-28.89069,-22.65803,1009.316
0.190347672,-0.1236305,-0.01267273,-0.1462885,-0.0375681,0.9861823,0.1770988,-5.063862,-28.89069,-22.65803,1009.316
0.195424080,-0.06176861,-0.01267273,-0.1462885,-0.02690918,0.9887893,0.1789916,-5.832979,-28.88469,-22.6636,1009.316
0.200504303,-0.1854923,0.1063051,-0.2683024,-0.03024546,0.9848287,0.1770811,-5.832979,-28.88469,-22.6636,1009.316
0.205575943,-0.06176861,-0.01267273,-0.02427471,-0.03366887,0.9857489,0.1766107,-5.832979,-28.88469,-22.6636,1009.316
0.210651875,0.1856788,-0.01267273,-0.02427471,-0.03031549,0.9887319,0.1780415,-5.832979,-28.88469,-22.6636,1009.316
0.215727806,0.06195511,-0.01267273,-0.08528163,-0.03234978,0.9935768,0.1785282,-5.832979,-28.88469,-22.6636,1009.316
0.220803738,9.325054E-05,0.1657941,0.09773912,-0.03266681,0.9843133,0.1780442,-5.832979,-28.88469,-22.6636,1009.316
0.225879669,9.325054E-05,-0.01267273,-0.08528163,-0.03728528,0.9974012,0.1785419,-5.832979,-28.88469,-22.6636,1009.316
0.230955601,-0.1236305,0.1657941,-0.02427471,-0.033769,0.9910984,0.1756563,-5.832979,-28.88469,-22.6636,1009.316
0.236031532,-0.2473542,0.2847719,-0.08528163,-0.03224635,0.9877146,0.1761297,-5.832979,-28.88469,-22.6636,1009.316
0.241107464,-0.06176861,0.3442609,0.09773912,-0.0293077,0.9867946,0.1775591,-5.832979,-28.88469,-22.6636,1009.318
0.246183395,-0.1854923,-0.07216167,0.09773912,-0.03178441,0.9891938,0.1775663,-5.450523,-28.89267,-23.11523,1009.318
0.251259327,-0.1236305,0.1063051,-0.02427471,-0.02789818,0.989229,0.1746838,-5.450523,-28.89267,-23.11523,1009.318
0.256335258,-0.2473542,0.4632387,-0.08528163,-0.03405101,0.9798833,0.1746922,-5.450523,-28.89267,-23.11523,1009.318
0.261411190,-0.1236305,0.225283,0.09773912,-0.03030653,0.9882449,0.1780412,-5.450523,-28.89267,-23.11523,1009.318
0.266487121,-0.1236305,0.4037498,-0.02427471,-0.03209094,0.979978,0.1833084,-5.450523,-28.89267,-23.11523,1009.318
0.271563530,-0.06176861,0.2847719,-0.08528163,-0.03554526,0.9823408,0.1804443,-5.450523,-28.89267,-23.11523,1009.318
0.276639461,-0.1236305,0.2847719,0.0367322,-0.02737274,0.9873028,0.1765971,-5.450523,-28.89267,-23.11523,1009.318
0.281715393,-0.06176861,0.5227277,0.0367322,-0.02642926,0.9887671,0.1751591,-5.450523,-28.89267,-23.11523,1009.318
0.286791324,-0.1236305,0.5227277,0.0367322,-0.03065043,0.9804423,0.1775583,-5.450523,-28.89267,-23.11523,1009.318
0.291867256,0.06195511,0.4037498,-0.02427471,-0.02990486,0.993144,0.1809169,-5.448431,-28.50654,-22.66657,1009.318
0.296943188,-0.06176861,0.4632387,0.0367322,-0.03315319,0.9843062,0.1780453,-5.448431,-28.50654,-22.66657,1009.318
0.302019119,-0.1236305,0.4037498,-0.08528163,-0.03369331,0.9872209,0.1780484,-5.448431,-28.50654,-22.66657,1009.318
0.304556846,-0.1236305,0.2847719,-0.1462885,-0.0287529,0.9828912,0.1756397,-5.448431,-28.50654,-22.66657,1009.318
0.309633255,0.2475407,0.5227277,0.158746,-0.03419438,0.9882024,0.1799659,-5.448431,-28.50654,-22.66657,1009.318
0.314709186,-0.06176861,0.5227277,0.09773912,-0.03265462,0.983841,0.1799596,-5.448431,-28.50654,-22.66657,1009.318
0.319785118,-0.06176861,0.3442609,-0.02427471,-0.02495872,0.9883125,0.1765922,-5.448431,-28.50654,-22.66657,1009.322
0.324861049,0.123817,0.4632387,-0.02427471,-0.02888651,0.990727,0.181392,-5.448431,-28.50654,-22.66657,1009.322
0.329937458,-0.1236305,0.6417056,0.2807599,-0.02837238,0.9887495,0.1766003,-5.448431,-28.50654,-22.66657,1009.322
0.335012913,-0.2473542,0.4632387,0.0367322,-0.0318634,0.993584,0.178527,-5.448431,-28.50654,-22.66657,1009.322
0.340088844,0.06195511,0.4632387,-0.02427471,-0.03477025,0.9925377,0.1747017,-5.448431,-28.50654,-22.66657,1009.322
0.345164776,-0.06176861,0.4037498,-0.02427471,-0.0327328,0.9882348,0.1813993,-5.448431,-28.50654,-22.66657,1009.322
0.350240707,-0.3092161,0.2847719,-0.08528163,-0.0390826,0.9890755,0.1761463,-5.448431,-28.50654,-22.66657,1009.322
0.355316639,-0.1236305,0.4632387,-0.02427471,-0.03516223,0.9876828,0.1775731,-5.448431,-28.50654,-22.66657,1009.322
0.360392570,-0.1854923,0.3442609,0.158746,-0.02788438,0.988764,0.1775571,-5.448431,-28.50654,-22.66657,1009.322
0.365468502,-0.3092161,0.1657941,0.0367322,-0.03714352,0.9890747,0.1723104,-5.448431,-28.50654,-22.66657,1009.322
0.370544433,-0.2473542,0.4037498,0.09773912,-0.03282794,0.9925516,0.1727815,-5.448431,-28.50654,-22.66657,1009.322
0.375620365,-0.2473542,-0.01267273,0.09773912,-0.03558674,0.9842631,0.1770931,-5.448431,-28.50654,-22.66657,1009.322
0.380696773,-0.2473542,0.225283,-0.1462885,-0.03038883,0.9931479,0.1823548,-5.448431,-28.50654,-22.66657,1009.322
0.385772705,-0.3710779,0.1657941,0.0367322,-0.03375432,0.9901098,0.17374,-5.448431,-28.50654,-22.66657,1009.322
0.390848636,-0.2473542,0.4037498,-0.08528163,-0.03410563,0.9833289,0.1794837,-5.063873,-28.50954,-22.66379,1009.322
0.395928860,-0.3092161,0.225283,-0.08528163,-0.03421142,0.9886526,0.1751769,-5.063873,-28.50954,-22.66379,1009.322
0.401000500,-0.1236305,0.0468162,0.09773912,-0.02782976,0.9853184,0.1727656,-5.063873,-28.50954,-22.66379,1009.322
0.406076431,-0.3092161,0.0468162,-0.02427471,-0.03030169,0.9882669,0.1809148,-5.063873,-28.50954,-22.66379,1009.322
0.411155224,-0.3710779,0.3442609,0.0367322,-0.03087022,0.992108,0.1746924,-5.063873,-28.50954,-22.66379,1009.322
0.416228294,-0.2473542,-0.01267273,0.0367322,-0.02935491,0.9892185,0.1761239,-5.063873,-28.50954,-22.66379,1009.322
0.421305656,-0.3710779,0.225283,0.0367322,-0.02884973,0.9877279,0.1713326,-5.063873,-28.50954,-22.66379,1009.322
0.426380157,-0.2473542,0.1063051,0.0367322,-0.02886691,0.989233,0.1770807,-5.063873,-28.50954,-22.66379,1009.322
0.431456089,-0.1854923,-0.1316506,-0.1462885,-0.03268957,0.9852652,0.1751713,-5.063873,-28.50954,-22.66379,1009.322
0.436532020,-0.3710779,0.1657941,0.0367322,-0.03266762,0.9843097,0.1775653,-5.450535,-28.51151,-23.12099,1009.322
0.441607952,-0.06176861,-0.07216167,-0.08528163,-0.0381367,0.9905508,0.176145,-5.450535,-28.51151,-23.12099,1009.322
0.446683884,-0.1854923,-0.07216167,-0.1462885,-0.03374713,0.9906702,0.1833188,-5.450535,-28.51151,-23.12099,1009.322
0.451761246,-0.06176861,-0.01267273,-0.02427471,-0.03421149,0.98918,0.1804454,-5.450535,-28.51151,-23.12099,1009.322
0.456836223,-0.06176861,-0.07216167,-0.08528163,-0.03558431,0.9842741,0.1785298,-5.450535,-28.51151,-23.12099,1009.322
0.461912155,-0.1854923,0.1063051,-0.08528163,-0.0308051,0.9887101,0.176127,-5.450535,-28.51151,-23.12099,1009.322
0.466989994,-0.2473542,-0.1911395,-0.02427471,-0.03029926,0.988278,0.1823516,-5.450535,-28.51151,-23.12099,1009.322
0.472064018,-0.1236305,-0.07216167,0.158746,-0.02885957,0.9887387,0.1761225,-5.450535,-28.51151,-23.12099,1009.322
0.474601745,-0.1236305,-0.2506285,0.09773912,-0.03320289,0.9872464,0.1804419,-5.450535,-28.51151,-23.12099,1009.322
0.479677677,9.325054E-05,-0.01267273,0.0367322,-0.03666132,0.9901183,0.1804516,-5.450535,-28.51151,-23.12099,1009.322
0.484755039,9.325054E-05,-0.07216167,0.0367322,-0.03333312,0.9940422,0.1775729,-5.450535,-28.51151,-23.12099,1009.322
0.489829540,0.06195511,0.0468162,0.0367322,-0.03467915,0.9882026,0.1809248,-5.450535,-28.51151,-23.12099,1009.322
0.494905949,9.325054E-05,0.1657941,-0.08528163,-0.03176811,0.9882124,0.1766078,-5.450535,-28.51151,-23.12099,1009.322
0.499981880,-0.1236305,0.1657941,-0.2072954,-0.03325575,0.9896446,0.1756543,-5.450535,-28.51151,-23.12099,1009.322
0.505057812,9.325054E-05,0.0468162,-0.1462885,-0.03077251,0.9867474,0.17421,-5.450535,-28.51151,-23.12099,1009.322
0.510133743,-0.06176861,0.1657941,-0.2072954,-0.03031711,0.9887246,0.1770837,-5.450535,-28.51151,-23.12099,1009.322
0.515209675,-0.1236305,0.1657941,-0.1462885,-0.03459928,0.9832886,0.1751745,-5.450535,-28.51151,-23.12099,1009.322
0.520285606,9.325054E-05,0.2847719,0.0367322,-0.03034405,0.9907129,0.1823532,-5.450535,-28.51151,-23.12099,1009.322
0.525361538,0.06195511,0.225283,-0.1462885,-0.03424481,0.9906116,0.176615,-5.450535,-28.51151,-23.12099,1009.324
0.530437469,0.1856788,0.6417056,-0.08528163,-0.02736055,0.9868305,0.1785125,-5.450535,-28.51151,-23.12099,1009.324
0.535513401,0.123817,0.3442609,0.09773912,-0.02533441,0.9824764,0.1785051,-5.068081,-28.51949,-23.57262,1009.324
0.540589332,-0.06176861,0.5227277,0.158746,-0.03171188,0.9847742,0.1727742,-5.068081,-28.51949,-23.57262,1009.324
0.545665264,0.123817,0.4632387,0.0367322,-0.03173794,0.9862388,0.173254,-5.068081,-28.51949,-23.57262,1009.324
0.550741196,9.325054E-05,0.4632387,0.09773912,-0.03579595,0.9954489,0.1751848,-5.068081,-28.51949,-23.57262,1009.324
0.555821895,-0.06176861,0.6417056,0.2807599,-0.03375682,0.9906262,0.1775717,-5.068081,-28.51949,-23.57262,1009.324
0.560892582,9.325054E-05,0.7011945,-0.02427471,-0.03270917,0.9867592,0.1794826,-5.068081,-28.51949,-23.57262,1009.324
0.565968513,-0.1854923,0.6417056,0.2807599,-0.03029105,0.9872599,0.1766038,-5.068081,-28.51949,-23.57262,1009.324
0.571044445,0.06195511,0.5227277,0.09773912,-0.02974439,0.9838471,0.1751637,-5.068081,-28.51949,-23.57262,1009.324
0.576120376,9.325054E-05,0.7011945,0.2807599,-0.0317176,0.9852759,0.1746902,-5.068081,-28.51949,-23.57262,1009.324
0.581196308,9.325054E-05,0.7011945,0.09773912,-0.03187478,0.9940599,0.1770906,-5.832979,-28.88469,-22.6636,1009.324
0.586272240,9.325054E-05,0.7011945,0.158746,-0.03221383,0.9862794,0.1794812,-5.832979,-28.88469,-22.6636,1009.324
0.591348171,9.325054E-05,0.6417056,0.09773912,-0.0322252,0.9867553,0.1780447,-5.832979,-28.88469,-22.6636,1009.324
0.596424103,-0.06176861,0.5822166,0.158746,-0.03563313,0.9866906,0.1761368,-5.832979,-28.88469,-22.6636,1009.324
0.601500511,-0.1854923,0.6417056,0.09773912,-0.03423667,0.990121,0.1761357,-5.832979,-28.88469,-22.6636,1009.324
0.606576443,-0.4329398,0.5822166,0.4637806,-0.03752412,0.9837437,0.1766183,-5.832979,-28.88469,-22.6636,1009.324
0.611652374,-0.2473542,0.5227277,0.2807599,-0.0390166,0.9851539,0.1727912,-5.832979,-28.88469,-22.6636,1009.324
0.616728306,-0.2473542,0.4037498,0.3417668,-0.03807158,0.9871529,0.1775795,-5.832979,-28.88469,-22.6636,1009.324
0.621804714,-0.1854923,0.4037498,0.2197529,-0.03856274,0.9865962,0.1694386,-5.832979,-28.88469,-22.6636,1009.324
0.626880169,-0.1854923,0.5227277,0.158746,-0.03517523,0.9881513,0.1751788,-5.832979,-28.88469,-22.6636,1009.324
0.631956100,-0.2473542,0.1657941,0.2197529,-0.03613581,0.9876648,0.1770964,-5.83721,-28.13233,-23.58394,1009.324
0.637032032,-0.06176861,0.3442609,0.09773912,-0.03868578,0.9939525,0.1761484,-5.83721,-28.13233,-23.58394,1009.324
0.639570236,9.325054E-05,0.225283,-0.08528163,-0.03371042,0.9881985,0.178528,-5.83721,-28.13233,-23.58394,1009.324
0.644646168,-0.06176861,0.225283,0.0367322,-0.03805529,0.9861715,0.176621,-5.83721,-28.13233,-23.58394,1009.324
0.649722099,-0.1854923,0.2847719,-0.02427471,-0.03810741,0.9891008,0.1775808,-5.83721,-28.13233,-23.58394,1009.324
0.654798031,-0.06176861,0.225283,-0.08528163,-0.03412516,0.9842955,0.1785265,-5.83721,-28.13233,-23.58394,1009.324
0.659873962,-0.06176861,0.225283,-0.2072954,-0.03133047,0.9901088,0.1689452,-5.83721,-28.13233,-23.58394,1009.324
0.664949894,9.325054E-05,0.2847719,-0.08528163,-0.03279792,0.9916328,0.1799648,-5.83721,-28.13233,-23.58394,1009.324
0.670025825,0.1856788,0.0468162,-0.2072954,-0.03760796,0.9881119,0.1747055,-5.83721,-28.13233,-23.58394,1009.324
0.675101757,9.325054E-05,0.1657941,0.09773912,-0.03805932,0.9861531,0.1742264,-5.83721,-28.13233,-23.58394,1009.324
0.680177689,0.2475407,-0.1316506,-0.02427471,-0.03463026,0.9852586,0.1780493,-5.83721,-28.13233,-23.58394,1009.324
0.685253620,0.1856788,-0.01267273,-0.1462885,-0.03722251,0.9934649,0.1732711,-5.83721,-28.13233,-23.58394,1009.324
0.690329552,9.325054E-05,-0.07216167,-0.02427471,-0.03810983,0.9890898,0.176144,-5.83721,-28.13233,-23.58394,1009.322
0.695405483,0.123817,-0.07216167,-0.08528163,-0.02939227,0.9906318,0.1698989,-5.83721,-28.13233,-23.58394,1009.322
0.700481415,-0.06176861,-0.2506285,-0.1462885,-0.03326309,0.9901389,0.1766124,-5.83721,-28.13233,-23.58394,1009.322
0.705557346,-0.1854923,0.0468162,-0.08528163,-0.03128004,0.9876996,0.172296,-5.83721,-28.13233,-23.58394,1009.322
0.710633278,0.06195511,-0.3696063,-0.1462885,-0.03174124,0.9867514,0.1766068,-5.83721,-28.13233,-23.58394,1009.322
0.715709686,9.325054E-05,-0.1911395,-0.08528163,-0.02835608,0.9877682,0.1756418,-5.83721,-28.13233,-23.58394,1009.322
0.720785618,0.123817,-0.2506285,-0.02427471,-0.03380321,0.9930537,0.1766155,-5.83721,-28.13233,-23.58394,1009.322
0.725861549,-0.1236305,-0.01267273,-0.08528163,-0.03322484,0.988202,0.1780479,-5.83721,-28.13233,-23.58394,1009.322
0.730937481,0.123817,-0.3101174,-0.08528163,-0.03130456,0.9896989,0.1790023,-5.065966,-28.89567,-23.11245,1009.322
0.736013412,9.325054E-05,-0.1316506,-0.02427471,-0.03318248,0.985756,0.1766095,-5.065966,-28.89567,-23.11245,1009.322
0.741089344,0.06195511,-0.3101174,-0.08528163,-0.03132328,0.9906693,0.178524,-5.065966,-28.89567,-23.11245,1009.322
0.746165276,-0.1854923,-0.1911395,-0.02427471,-0.02785589,0.9873104,0.1785139,-5.065966,-28.89567,-23.11245,1009.322
0.751241207,9.325054E-05,-0.1316506,-0.3293093,-0.02743139,0.9907301,0.178994,-5.065966,-28.89567,-23.11245,1009.322
0.756317139,-0.06176861,-0.01267273,-0.1462885,-0.02647242,0.9912094,0.1761186,-5.065966,-28.89567,-23.11245,1009.322
0.761393070,0.06195511,-0.3101174,0.0367322,-0.02486674,0.9834538,0.1780258,-5.065966,-28.89567,-23.11245,1009.322
0.766469002,-0.1236305,-0.01267273,0.09773912,-0.02841304,0.9906754,0.173728,-5.065966,-28.89567,-23.11245,1009.322
0.771544933,9.325054E-05,-0.07216167,0.0367322,-0.0284449,0.9931691,0.1813925,-5.065966,-28.89567,-23.11245,1009.322
0.776620865,-0.1236305,-0.01267273,0.09773912,-0.03278897,0.9911458,0.1799644,-5.063862,-28.89069,-22.65803,1009.322
0.781701565,-0.2473542,0.2847719,0.0367322,-0.02881721,0.9862927,0.1746841,-5.063862,-28.89069,-22.65803,1009.322
0.786772728,9.325054E-05,0.1657941,0.09773912,-0.03317514,0.9852617,0.1756514,-5.063862,-28.89069,-22.65803,1009.322
0.791849136,-0.06176861,0.1063051,0.0367322,-0.03186259,0.9935876,0.179006,-5.063862,-28.89069,-22.65803,1009.322
0.796925068,-0.06176861,0.2847719,-0.08528163,-0.02827063,0.9834074,0.1785125,-5.063862,-28.89069,-22.65803,1009.322
0.802000999,0.06195511,0.1063051,-0.2072954,-0.02602193,0.9936918,0.1813872,-5.063862,-28.89069,-22.65803,1009.322
0.807076931,-0.2473542,0.2847719,0.158746,-0.03126381,0.9872456,0.176606,-5.063862,-28.89069,-22.65803,1009.322
0.809614658,0.06195511,0.4632387,0.09773912,-0.03167936,0.983339,0.1761257,-5.063862,-28.89069,-22.65803,1009.322
0.814690590,-0.3092161,0.2847719,0.09773912,-0.02697026,0.9922056,0.1799517,-5.063862,-28.89069,-22.65803,1009.322
0.819766521,9.325054E-05,0.4632387,-0.02427471,-0.03119547,0.9838625,0.1799563,-5.063862,-28.89069,-22.65803,1009.322
0.824842453,-0.06176861,0.4632387,0.0367322,-0.03122806,0.9858251,0.1818733,-5.450535,-28.51151,-23.12099,1009.322
0.829918861,0.06195511,0.5822166,0.158746,-0.03133708,0.9911342,0.1756508,-5.450535,-28.51151,-23.12099,1009.322
0.834994793,-0.06176861,0.5822166,0.158746,-0.02990237,0.9926276,0.1770852,-5.450535,-28.51151,-23.12099,1009.322
0.840070724,-0.1854923,0.3442609,0.2197529,-0.03083036,0.9901784,0.1770858,-5.450535,-28.51151,-23.12099,1009.322
0.845146656,-0.2473542,0.6417056,0.158746,-0.0291807,0.9799842,0.1785125,-5.450535,-28.51151,-23.12099,1009.322
0.850222588,-0.06176861,0.5227277,0.2197529,-0.03472547,0.9901028,0.1747001,-5.450535,-28.51151,-23.12099,1009.322
0.855298519,-0.1236305,0.4632387,0.2807599,-0.02589244,0.986365,0.1785088,-5.450535,-28.51151,-23.12099,1009.322
0.860374451,-0.06176861,0.4632387,0.2807599,-0.03469288,0.9881401,0.1727831,-5.450535,-28.51151,-23.12099,1009.322
0.865450382,-0.1236305,0.6417056,0.0367322,-0.03228628,0.9901716,0.1790048,-5.450535,-28.51151,-23.12099,1009.322
0.870528221,0.06195511,0.3442609,0.3417668,-0.03364692,0.9847933,0.1790046,-5.450535,-28.51151,-23.12099,1009.322
0.875602245,-0.1854923,0.4037498,0.2197529,-0.03327043,0.9906333,0.1775706,-5.830875,-28.87971,-22.20919,1009.322
0.880678177,-0.1854923,0.4037498,0.09773912,-0.03179659,0.989666,0.1756509,-5.830875,-28.87971,-22.20919,1009.322
0.885754108,-0.1236305,0.4037498,0.0367322,-0.03314916,0.9843245,0.18044,-5.830875,-28.87971,-22.20919,1009.322
0.890830040,-0.1236305,0.4037498,0.2807599,-0.03277986,0.989604,0.1694271,-5.830875,-28.87971,-22.20919,1009.322
0.895905972,-0.06176861,0.3442609,0.158746,-0.03277428,0.9901571,0.1780481,-5.830875,-28.87971,-22.20919,1009.32
0.900982380,0.1856788,0.225283,0.158746,-0.03265624,0.9838336,0.1790018,-5.830875,-28.87971,-22.20919,1009.32
0.906062603,-0.1236305,0.1657941,-0.02427471,-0.03719329,0.9925424,0.1799754,-5.830875,-28.87971,-22.20919,1009.32
0.911134243,-0.06176861,0.1657941,0.09773912,-0.03221221,0.9862867,0.180439,-5.830875,-28.87971,-22.20919,1009.32
0.916211605,-0.06176861,-0.01267273,0.0367322,-0.03035293,0.9906725,0.177085,-5.830875,-28.87971,-22.20919,1009.32
0.921286106,0.123817,0.225283,0.0367322,-0.03519967,0.9896233,0.1766166,-5.450546,-28.13036,-23.12674,1009.32
0.926362038,-0.1236305,0.1657941,-0.08528163,-0.03125317,0.9862386,0.1722951,-5.450546,-28.13036,-23.12674,1009.32
0.931437969,-0.06176861,0.1063051,-0.02427471,-0.03470352,0.9891472,0.1770941,-5.450546,-28.13036,-23.12674,1009.32
0.936513901,9.325054E-05,-0.01267273,0.158746,-0.0351623,0.9882101,0.1828416,-5.450546,-28.13036,-23.12674,1009.32
0.941589832,9.325054E-05,-0.07216167,-0.08528163,-0.0332338,0.988689,0.1780483,-5.450546,-28.13036,-23.12674,1009.32
0.946665764,0.123817,0.0468162,0.0367322,-0.02982015,0.988252,0.1780401,-5.450546,-28.13036,-23.12674,1009.32
0.951741695,-0.06176861,0.1657941,0.09773912,-0.02934191,0.9887499,0.1785183,-5.450546,-28.13036,-23.12674,1009.32
0.956817627,9.325054E-05,0.1063051,-0.02427471,-0.03271151,0.9862208,0.1727774,-5.450546,-28.13036,-23.12674,1009.32
0.961893558,0.06195511,0.1063051,-0.02427471,-0.03127607,0.9882453,0.1799592,-5.450546,-28.13036,-23.12674,1009.32
0.966969490,0.1856788,-0.1316506,0.0367322,-0.03025522,0.985312,0.1766025,-5.450546,-28.13036,-23.12674,1009.32
0.972045422,9.325054E-05,0.1657941,-0.02427471,-0.03361521,0.9833544,0.1818772,-4.679314,-28.51254,-22.661,1009.32
0.977125168,9.325054E-05,0.0468162,-0.08528163,-0.03511987,0.9852368,0.1761348,-4.679314,-28.51254,-22.661,1009.32
0.979659557,-0.06176861,0.0468162,-0.08528163,-0.03219753,0.9852981,0.1785227,-4.679314,-28.51254,-22.661,1009.32
0.984735489,0.123817,-0.1316506,0.0367322,-0.03126624,0.9872346,0.1751693,-4.679314,-28.51254,-22.661,1009.32
0.989815712,-0.06176861,-0.2506285,-0.08528163,-0.03520298,0.9901361,0.1799694,-4.679314,-28.51254,-22.661,1009.32
0.994887352,-0.3092161,0.1063051,-0.02427471,-0.02601122,0.9921575,0.1718077,-4.679314,-28.51254,-22.661,1009.32
0.999963284,-0.06176861,-0.07216167,-0.02427471,-0.03650254,0.9813415,0.1790091,-4.679314,-28.51254,-22.661,1009.32
1.005038738,9.325054E-05,-0.1316506,-0.08528163,-0.03225942,0.9887106,0.1790039,-4.679314,-28.51254,-22.661,1009.32
1.010114670,-0.1236305,-0.07216167,-0.02427471,-0.02976553,0.9848065,0.1732486,-4.679314,-28.51254,-22.661,1009.32
1.015190601,-0.1236305,0.1063051,-0.02427471,-0.02977618,0.9858135,0.1775596,-4.679314,-28.51254,-22.661,1009.32
1.020266533,-0.1236305,-0.1316506,-0.08528163,-0.02639189,0.9873539,0.1813841,-5.450512,-29.27382,-23.10948,1009.32
1.025342464,9.325054E-05,-0.07216167,-0.08528163,-0.03229355,0.9901386,0.1746945,-5.450512,-29.27382,-23.10948,1009.32
1.030418396,-0.06176861,0.0468162,0.0367322,-0.02642852,0.9892982,0.1809065,-5.450512,-29.27382,-23.10948,1009.32
1.035494328,-0.06176861,-0.1316506,-0.02427471,-0.03034478,0.9901819,0.1766057,-5.450512,-29.27382,-23.10948,1009.32
1.040570259,-0.06176861,-0.07216167,-0.08528163,-0.03273765,0.9882128,0.1785257,-5.450512,-29.27382,-23.10948,1009.32
1.045646667,-0.1236305,-0.1316506,-0.02427471,-0.03459194,0.9827943,0.1742163,-5.450512,-29.27382,-23.10948,1009.32
1.050722599,0.06195511,-0.07216167,0.09773912,-0.0270052,0.9936298,0.1751634,-5.450512,-29.27382,-23.10948,1009.32
1.055798531,-0.1854923,-0.1316506,0.158746,-0.03314666,0.9838081,0.1766083,-5.450512,-29.27382,-23.10948,1009.32
1.060874462,-0.1236305,0.1657941,0.0367322,-0.0317673,0.9882161,0.1770867,-5.450512,-29.27382,-23.10948,1009.32
1.065950394,-0.1854923,-0.01267273,0.2197529,-0.02790559,0.9902507,0.1809105,-5.835094,-28.50851,-23.12377,1009.32
1.071026325,-0.1854923,-0.01267273,0.09773912,-0.03559731,0.9847427,0.1761356,-5.835094,-28.50851,-23.12377,1009.32
1.076102257,-0.1236305,-0.01267273,0.0367322,-0.02592503,0.9883276,0.1804258,-5.835094,-28.50851,-23.12377,1009.32
1.081178188,0.06195511,0.1063051,0.09773912,-0.03518257,0.9886457,0.176137,-5.835094,-28.50851,-23.12377,1009.32
1.086254120,-0.1236305,-0.07216167,0.09773912,-0.03125978,0.987264,0.1790007,-5.835094,-28.50851,-23.12377,1009.32
1.091334820,0.06195511,0.0468162,0.158746,-0.02885465,0.9882333,0.1737276,-5.835094,-28.50851,-23.12377,1009.32
1.096405983,-0.06176861,0.225283,0.0367322,-0.03517853,0.9886641,0.1785316,-5.835094,-28.50851,-23.12377,1009.32
1.101481915,-0.1236305,0.225283,-0.02427471,-0.03032848,0.9892005,0.1756472,-5.835094,-28.50851,-23.12377,1009.319
1.106557846,-0.1236305,0.1063051,0.2197529,-0.02991698,0.9930889,0.173733,-5.835094,-28.50851,-23.12377,1009.319
1.111633778,9.325054E-05,0.3442609,0.09773912,-0.03077178,0.9872785,0.1799574,-5.835094,-28.50851,-23.12377,1009.319
1.116709709,-0.1854923,0.1657941,0.0367322,-0.03225853,0.9881869,0.1742143,-5.835083,-28.88967,-23.11802,1009.319
1.121786118,0.123817,0.3442609,0.158746,-0.03029596,0.9877653,0.1789988,-5.835083,-28.88967,-23.11802,1009.319
1.126866341,-0.06176861,0.2847719,0.0367322,-0.03214372,0.9818488,0.1732523,-5.835083,-28.88967,-23.11802,1009.319
1.131937981,9.325054E-05,0.4037498,0.09773912,-0.03082874,0.9901857,0.1780436,-5.835083,-28.88967,-23.11802,1009.319
1.137013912,9.325054E-05,0.4037498,-0.02427471,-0.03370389,0.9877005,0.1770909,-5.835083,-28.88967,-23.11802,1009.319
1.142093182,0.123817,0.1657941,0.2197529,-0.03322404,0.9882057,0.1785268,-5.835083,-28.88967,-23.11802,1009.317
1.144627571,9.325054E-05,0.1657941,0.09773912,-0.0341927,0.9876823,0.1756552,-5.835083,-28.88967,-23.11802,1009.317
1.149703503,9.325054E-05,0.3442609,0.09773912,-0.02828201,0.9838833,0.177076,-5.835083,-28.88967,-23.11802,1009.317
1.154779434,0.123817,0.0468162,-0.02427471,-0.03031065,0.988754,0.1809151,-5.835083,-28.88967,-23.11802,1009.317
1.159855843,0.123817,0.3442609,0.09773912,-0.03173067,0.9862719,0.1775644,-5.835083,-28.88967,-23.11802,1009.317
1.164931774,0.06195511,0.3442609,0.2197529,-0.0307742,0.9872675,0.1785206,-5.448431,-28.50654,-22.66657,1009.317
1.170007706,9.325054E-05,0.3442609,0.09773912,-0.03378611,0.9920761,0.1761359,-5.448431,-28.50654,-22.66657,1009.317
1.175083637,0.123817,0.4037498,0.0367322,-0.0336412,0.9842917,0.1770886,-5.448431,-28.50654,-22.66657,1009.317
1.180159569,0.1856788,0.3442609,-0.1462885,-0.02882374,0.9867907,0.1761212,-5.448431,-28.50654,-22.66657,1009.317
1.185237885,0.06195511,0.1657941,0.09773912,-0.03369324,0.9866934,0.1727799,-5.448431,-28.50654,-22.66657,1009.317
1.190311432,0.1856788,0.2847719,-0.02427471,-0.03321185,0.9877334,0.1804422,-5.448431,-28.50654,-22.66657,1009.317
1.195387363,0.1856788,0.3442609,0.09773912,-0.02888078,0.9902254,0.1794759,-5.448431,-28.50654,-22.66657,1009.317
1.200463295,-0.1236305,0.2847719,-0.02427471,-0.03518007,0.9881293,0.1723053,-5.448431,-28.50654,-22.66657,1009.317
1.205539227,0.123817,0.1657941,0.0367322,-0.03076686,0.9867731,0.1775625,-5.448431,-28.50654,-22.66657,1009.317
1.210615158,0.1856788,0.2847719,0.0367322,-0.032727,0.9872058,0.1742148,-5.448431,-28.50654,-22.66657,1009.317
1.215691090,0.06195511,0.1657941,0.0367322,-0.03125816,0.9872714,0.1799585,-5.450523,-28.89267,-23.11523,1009.317
1.220767021,9.325054E-05,0.1657941,0.2197529,-0.03558262,0.983754,0.1742192,-5.450523,-28.89267,-23.11523,1009.317
1.225842953,0.06195511,0.225283,0.0367322,-0.03230904,0.9911236,0.1761319,-5.450523,-28.89267,-23.11523,1009.317
1.230918884,0.123817,0.4037498,0.158746,-0.03703451,0.9837656,0.1785329,-5.450523,-28.89267,-23.11523,1009.317
1.235995292,0.06195511,0.1063051,0.0367322,-0.03322815,0.9887147,0.1814007,-5.450523,-28.89267,-23.11523,1009.317
1.241071224,0.06195511,0.0468162,0.158746,-0.03515974,0.9871664,0.1737414,-5.450523,-28.89267,-23.11523,1009.317
1.246147156,-0.06176861,0.1657941,0.0367322,-0.0361513,0.9886498,0.1785339,-5.450523,-28.89267,-23.11523,1009.317
1.251223087,-0.1854923,0.1657941,0.2197529,-0.03618712,0.9905977,0.1785351,-5.450523,-28.89267,-23.11523,1009.317
1.256299019,0.06195508,0.2251935,0.09770842,-0.03124839,0.986788,0.1804371,-5.450523,-28.89267,-23.11523,1009.317
1.261374950,0.06201334,0.1655258,-0.1463615,-0.03274499,0.9887072,0.1794839,-5.065977,-28.51452,-23.1182,1009.317
1.266450882,0.0001319489,0.2843996,-0.02431319,-0.03318329,0.9857524,0.1761306,-5.065977,-28.51452,-23.1182,1009.317
1.271526813,-0.06173,0.3436912,-0.1462734,-0.02936878,0.9902109,0.1785192,-5.065977,-28.51452,-23.1182,1009.317
1.276602745,0.06201307,0.4624906,-0.08523211,-0.03120031,0.9838404,0.1770827,-5.065977,-28.51452,-23.1182,1009.317
1.281678676,0.000151122,0.1648301,-0.02419081,-0.03237254,0.9945288,0.1756552,-5.065977,-28.51452,-23.1182,1009.317
1.286754608,0.0001315922,0.3431373,-0.02415645,-0.03073918,0.9853159,0.1780404,-5.065977,-28.51452,-23.1182,1009.317
1.291830540,0.0001898129,0.2834888,0.1588411,-0.03478574,0.9935227,0.1761391,-5.065977,-28.51452,-23.1182,1009.317
1.296906471,0.1857753,0.1643516,0.03676586,-0.03273596,0.9876928,0.1742151,-5.065977,-28.51452,-23.1182,1009.317
1.301982403,-0.1853766,0.2832449,0.1587758,-0.03611378,0.9861817,0.1742219,-5.065977,-28.51452,-23.1182,1009.315
1.307058334,0.0621096,0.1046375,-0.02432557,-0.03365264,0.985295,0.1809206,-5.065977,-28.51452,-23.1182,1009.315
1.309596538,0.1239519,0.2830715,0.0976959,-0.03703451,0.9837656,0.1785329,-5.450523,-28.89267,-23.11523,1009.315
1.314672470,0.0001892336,0.1044268,-0.02432181,-0.03377143,0.9910874,0.1742196,-5.450523,-28.89267,-23.11523,1009.315
1.319753170,0.0001891144,0.1043612,0.1586567,-0.03612605,0.9871815,0.1775751,-5.450523,-28.89267,-23.11523,1009.315
1.324824333,0.06203142,0.282669,-0.08545145,-0.03658226,0.9852006,0.1742224,-5.450523,-28.89267,-23.11523,1009.315
1.329900265,-0.1235737,0.1040807,0.03659689,-0.03220157,0.9852797,0.1761281,-5.450523,-28.89267,-23.11523,1009.315
1.334976196,-0.1235155,0.1635229,0.03657391,-0.03649842,0.9808325,0.1761352,-5.450523,-28.89267,-23.11523,1009.315
1.340052128,-0.06157605,0.2228718,-0.08542457,-0.03521024,0.990103,0.175659,-5.450523,-28.89267,-23.11523,1009.315
1.345128059,0.2476942,0.2227317,-0.08540924,-0.03233752,0.9925771,0.1751751,-5.450523,-28.89267,-23.11523,1009.315
1.350204468,-0.1853778,0.1036513,0.09758851,-0.03570067,0.9900775,0.1732655,-5.450523,-28.89267,-23.11523,1009.315
1.355280399,-0.06153764,0.1035488,-0.02446747,-0.03714191,0.989082,0.1732682,-5.450523,-28.89267,-23.11523,1009.315
1.360356331,0.06222474,0.222443,-0.08549735,-0.03222682,0.986748,0.1770869,-5.068092,-28.13834,-23.57837,1009.315
1.365432262,-0.1233611,0.2222845,-0.08540531,-0.03661728,0.9871523,0.1747026,-5.068092,-28.13834,-23.57837,1009.315
1.370508194,-0.06142171,0.2221822,-0.02434474,-0.03656031,0.9842451,0.1766164,-5.068092,-28.13834,-23.57837,1009.315
1.375584125,0.0004787436,0.1625537,0.09764606,-0.03358665,0.9813734,0.1775656,-5.068092,-28.13834,-23.57837,1009.315
1.380660057,0.2479065,0.1624703,0.0365778,-0.03528189,0.9939988,0.1756616,-5.068092,-28.13834,-23.57837,1009.315
1.385735988,0.0004198765,0.04348381,0.03651649,-0.03322888,0.9881836,0.1756533,-5.068092,-28.13834,-23.57837,1009.315
1.390811920,0.0003418745,0.102908,0.09744297,-0.03614557,0.988148,0.1766178,-5.068092,-28.13834,-23.57837,1009.315
1.395889282,-0.1233432,0.1623323,0.03641316,-0.03164595,0.98138,0.1746876,-5.068092,-28.13834,-23.57837,1009.315
1.400963783,0.06226157,0.1622677,-0.02461663,-0.03121411,0.9843054,0.1742095,-5.068092,-28.13834,-23.57837,1009.315
1.406039715,0.1860045,0.1026955,-0.3296357,-0.02889378,0.990694,0.1770816,-6.219643,-28.88666,-23.12081,1009.315
1.411118030,-0.06154038,0.1026123,0.09752393,-0.03028128,0.9867766,0.1770824,-6.219643,-28.88666,-23.12081,1009.315
1.416191578,0.0004184488,0.1619994,-0.1465267,-0.03415687,0.9857344,0.1756539,-6.219643,-28.88666,-23.12081,1009.315
1.421267509,0.1860038,0.2213679,-0.2074799,-0.03127923,0.9877032,0.172775,-6.219643,-28.88666,-23.12081,1009.315
1.426343918,-0.06152166,-0.0167269,-0.02434795,-0.029324,0.9877759,0.1785176,-6.219643,-28.88666,-23.12081,1009.314
1.431419849,-0.1233449,0.1616943,-0.08533957,-0.03377311,0.9916075,0.1785302,-6.219643,-28.88666,-23.12081,1009.314
1.436495781,0.0004563397,0.1616115,-0.1462929,-0.03264398,0.982834,0.1756486,-6.219643,-28.88666,-23.12081,1009.314
1.441571712,0.1860028,-0.07638974,0.03676229,-0.03076928,0.9867621,0.1761257,-6.219643,-28.88666,-23.12081,1009.314
1.446647644,0.0003197677,0.102069,-0.08531298,-0.03073272,0.9853452,0.1818718,-6.219643,-28.88666,-23.12081,1009.314
1.451723575,0.06218143,0.04251593,0.03675446,-0.02932473,0.9872448,0.1727702,-6.219643,-28.88666,-23.12081,1009.314
1.456799507,0.0621035,-0.07648864,-0.0852633,-0.0303033,0.9882596,0.1799569,-5.835106,-28.12736,-23.12953,1009.314
1.461875439,0.3094731,0.2209293,0.03676576,-0.03464333,0.9862546,0.1809235,-5.835106,-28.12736,-23.12953,1009.314
1.466951370,0.2474168,0.1613203,0.03674266,-0.03077655,0.986729,0.1718154,-5.835106,-28.12736,-23.12953,1009.315
1.472027302,-0.0001472291,0.1612189,0.09768817,-0.0351695,0.9876497,0.1732628,-5.835106,-28.12736,-23.12953,1009.315
1.474565506,0.1854384,0.2206572,0.09765747,-0.03323615,0.9881505,0.171343,-5.835106,-28.12736,-23.12953,1009.315
1.479640484,0.3090456,0.4584557,-0.02437938,-0.0308402,0.9911891,0.1818757,-5.835106,-28.12736,-23.12953,1009.315
1.484716415,0.06146234,0.160779,-0.08533265,-0.03021132,0.9834008,0.1813905,-5.835106,-28.12736,-23.12953,1009.315
1.489792824,0.2470093,0.2795812,-0.08525987,-0.02839198,0.9902436,0.1809116,-5.835106,-28.12736,-23.12953,1009.315
1.494868755,0.1231887,0.3388384,0.03684586,-0.03220722,0.985254,0.1727756,-5.835106,-28.12736,-23.12953,1009.315
1.499944687,-0.1243361,0.2196476,-0.02422254,-0.02776875,0.9824296,0.177074,-5.835106,-28.12736,-23.12953,1009.315
1.505020618,0.06130814,0.2195283,0.09776817,-0.03028047,0.9867803,0.1775613,-5.835083,-28.88967,-23.11802,1009.315
1.510096550,0.06126962,0.4573649,0.2197589,-0.03228951,0.9901569,0.1770891,-5.835083,-28.88967,-23.11802,1009.315
1.515172481,-0.06249259,0.4570775,-0.02434931,-0.03174124,0.9867514,0.1766068,-5.835083,-28.88967,-23.11802,1009.315
1.520248413,-0.06245333,0.5162606,-0.02435318,-0.03127607,0.9882453,0.1799592,-5.835083,-28.88967,-23.11802,1009.315
1.525324345,-0.0005328013,0.5754626,-0.14639,-0.03380651,0.9935664,0.1799683,-5.835083,-28.88967,-23.11802,1009.315
1.530400276,-0.2479605,0.4561606,0.09771042,-0.03524365,0.992062,0.1770971,-5.835083,-28.88967,-23.11802,1009.315
1.535476208,0.06142686,0.3369709,0.09764904,-0.03124186,0.98629,0.179,-5.835083,-28.88967,-23.11802,1009.315
1.540552139,0.06138828,0.6341479,0.2196015,-0.03718103,0.9915427,0.1766223,-5.835083,-28.88967,-23.11802,1009.315
1.545631409,-0.0004927171,0.5147529,0.03648116,-0.03368928,0.9872392,0.180443,-5.835083,-28.88967,-23.11802,1009.315
1.550704002,-0.309724,0.5738997,0.09744599,-0.03122476,0.9853124,0.1785205,-5.44842,-28.88769,-22.66082,1009.32
1.555779934,-0.3095683,0.5140503,0.2193411,-0.03608934,0.9847098,0.1727842,-5.44842,-28.88769,-22.66082,1009.32
1.560855865,-0.3712551,0.3352793,0.1581964,-0.03162401,0.9804243,0.1770816,-5.44842,-28.88769,-22.66082,1009.32
1.565932274,-0.2472981,0.4540091,0.2801108,-0.0308344,0.99016,0.1746912,-5.44842,-28.88769,-22.66082,1009.32
1.571008205,-0.1234385,0.1563353,0.2799732,-0.03759254,0.9876543,0.1785366,-5.44842,-28.88769,-22.66082,1009.32
1.576084614,-0.1852228,0.2751589,0.1578026,-0.03423747,0.9901173,0.1756568,-5.44842,-28.88769,-22.66082,1009.32
1.581160068,-0.123264,0.3344936,0.1576844,-0.03087103,0.9921043,0.1742135,-5.44842,-28.88769,-22.66082,1009.32
1.586236000,-0.1850679,0.09636516,-0.02547379,-0.03378369,0.9920871,0.1775727,-5.44842,-28.88769,-22.66082,1009.32
1.591313839,-0.3705178,0.2152451,0.03552996,-0.03709309,0.9866654,0.1756613,-5.44842,-28.88769,-22.66082,1009.32
1.596387863,-0.1847383,-0.08227871,0.03550764,-0.03617648,0.9895906,0.1742242,-5.44842,-28.88769,-22.66082,1009.32
1.601463795,0.06278635,-0.141716,0.09649226,-0.03649842,0.9808325,0.1761352,-5.450535,-28.51151,-23.12099,1009.32
1.606539726,-0.1847005,-0.08217537,-0.08655078,-0.03326551,0.9901279,0.1751757,-5.450535,-28.51151,-23.12099,1009.32
1.611615658,-0.06084135,0.0368728,0.0354791,-0.0346376,0.9857529,0.1790075,-5.450535,-28.51151,-23.12099,1009.32
1.616691589,0.06297889,0.03683095,0.1574515,-0.03270667,0.9862428,0.1756509,-5.450535,-28.51151,-23.12099,1009.32
1.621767521,0.001058037,0.03678912,0.03537706,-0.03268883,0.9857963,0.1809187,-5.450535,-28.51151,-23.12099,1009.32
1.626843452,-0.1226275,-0.08219317,-0.1476467,-0.03319959,0.9867337,0.1770891,-5.450535,-28.51151,-23.12099,1009.32
1.631919384,-0.06070802,0.03683634,0.03544759,-0.0342294,0.990154,0.1804461,-5.450535,-28.51151,-23.12099,1009.318
1.637001038,0.001191981,0.03675713,0.03544449,-0.03365177,0.9847713,0.1761311,-5.450535,-28.51151,-23.12099,1009.318
1.642071724,0.2486192,-0.1416954,-0.2085479,-0.03321515,0.9882461,0.183795,-5.450535,-28.51151,-23.12099,1009.318
1.644609451,0.1248174,-0.022673,-0.0864686,-0.0303196,0.9892409,0.1809154,-5.450535,-28.51151,-23.12099,1009.318
1.649685383,0.1866397,-0.02265875,-0.2694733,-0.03180966,0.9906621,0.1785251,-4.679314,-28.51254,-22.661,1009.318
1.654761314,0.06283763,-0.08207739,-0.02535307,-0.03419115,0.9882171,0.1818816,-4.679314,-28.51254,-22.661,1009.318
1.659837246,0.2483449,-0.08206321,-0.2083195,-0.03578949,0.9954783,0.1790162,-4.679314,-28.51254,-22.661,1009.318
1.664913177,0.0007997099,0.1559815,-0.08617486,-0.03467262,0.9877046,0.1794877,-4.679314,-28.51254,-22.661,1009.318
1.669989109,0.06260277,-0.02252726,-0.02513297,-0.0288327,0.9872777,0.1761215,-4.679314,-28.51254,-22.661,1009.32
1.675065041,0.1862677,-0.3199765,-0.1471118,-0.03130529,0.9891679,0.1732549,-4.679314,-28.51254,-22.661,1009.32
1.680145740,0.1243277,-0.1413834,0.1580343,-0.03514755,0.986694,0.1756568,-4.679314,-28.51254,-22.661,1009.32
1.685217380,0.06232944,0.09662377,-0.02504737,-0.0323017,0.9906292,0.1751738,-4.679314,-28.51254,-22.661,1009.32
1.690293312,0.06227085,-0.1413179,-0.1470455,-0.0332175,0.9877077,0.1770898,-4.679314,-28.51254,-22.661,1009.32
1.695369244,0.1859749,0.03720029,0.09703624,-0.02928979,0.9858207,0.1775585,-5.452639,-28.51649,-23.5754,1009.32
1.700445175,0.1240351,-0.1412525,-0.08604547,-0.02981685,0.9877394,0.1746873,-5.452639,-28.51649,-23.5754,1009.32
1.705521107,0.06209528,0.09673591,0.03604159,-0.02540936,0.9868848,0.1818605,-5.452639,-28.51649,-23.5754,1009.32
1.710597038,0.0620174,-0.08175429,-0.1469635,-0.0279478,0.9916419,0.1718119,-5.452639,-28.51649,-23.5754,1009.32
1.715672970,0.1238792,0.03721887,-0.08590256,-0.03573495,0.9925601,0.1794932,-5.452639,-28.51649,-23.5754,1009.318
1.720748901,9.706337E-05,0.1561733,-0.1468747,-0.02842361,0.991155,0.1727705,-5.452639,-28.51649,-23.5754,1009.318
1.725824833,-0.06178429,0.09656763,0.1581755,-0.02981039,0.9877688,0.1785187,-5.452639,-28.51649,-23.5754,1009.318
1.730900764,-0.3090958,0.1559585,0.03610064,-0.02889693,0.9901519,0.1698975,-5.452639,-28.51649,-23.5754,1009.318
1.735977650,-0.1852362,0.2153121,-0.1469428,-0.03267415,0.9848076,0.1790024,-5.452639,-28.51649,-23.5754,1009.318
1.741052628,-0.1232968,0.09625503,-0.08588189,-0.03213645,0.9818819,0.1775626,-5.452639,-28.51649,-23.5754,1009.318
1.746128559,-0.06133804,0.2151351,0.1581422,-0.02834551,0.9872885,0.1765994,-5.835083,-28.88967,-23.11802,1009.318
1.751204491,-0.06126064,0.3339591,0.09697847,-0.03129303,0.9881682,0.1699017,-5.835083,-28.88967,-23.11802,1009.318
1.756284714,0.0006397106,0.2742603,0.09689838,-0.03179094,0.9896917,0.1790034,-5.835083,-28.88967,-23.11802,1009.318
1.761356831,-0.1230844,0.2741067,-0.02515716,-0.03317441,0.9857928,0.1813988,-5.835083,-28.88967,-23.11802,1009.318
1.766432762,-0.1230265,0.2739159,-0.1471743,-0.03116045,0.9819108,0.1794761,-5.835083,-28.88967,-23.11802,1009.318
1.771508694,-0.1847917,0.5711697,0.03595801,-0.03028862,0.987271,0.1780406,-5.835083,-28.88967,-23.11802,1009.318
1.776584625,0.0008322727,0.4519078,0.09692318,-0.02448783,0.9893047,0.1780285,-5.835083,-28.88967,-23.11802,1009.318
1.781662464,-0.06103011,0.3920976,0.1578692,-0.02734667,0.9858382,0.1761172,-5.835083,-28.88967,-23.11802,1009.318
1.786736488,0.00087009,0.4513215,0.09676312,-0.03417889,0.9872174,0.1785284,-5.835083,-28.88967,-23.11802,1009.318
1.791812420,0.0008695433,0.5105269,0.2797231,-0.03267327,0.9842839,0.1742128,-5.835083,-28.88967,-23.11802,1009.318
1.796888351,-0.1228353,0.3912097,0.03555802,-0.03374463,0.9901538,0.1794871,-5.452639,-28.51649,-23.5754,1009.318
1.801964283,-0.06089626,0.5099418,0.1575112,-0.03473443,0.9905898,0.1747004,-5.452639,-28.51649,-23.5754,1009.318
1.807040214,0.0009649871,0.6285993,0.2794069,-0.03124516,0.9868027,0.1823528,-5.452639,-28.51649,-23.5754,1009.318
1.809578419,-0.06089718,0.2714682,0.2793191,-0.03277025,0.9901755,0.1804427,-5.452639,-28.51649,-23.5754,1009.318
1.814654350,0.1246878,0.1522637,0.1571681,-0.03030573,0.9882486,0.1785202,-5.452639,-28.51649,-23.5754,1009.318
1.819730282,0.06272817,0.3305975,0.03507474,-0.0385474,0.986666,0.1785381,-5.452639,-28.51649,-23.5754,1009.318
1.824806213,0.2482938,0.3898787,0.1569899,-0.02891161,0.9911405,0.1718138,-5.452639,-28.51649,-23.5754,1009.318
1.829882145,0.2481961,0.4491414,-0.02611033,-0.03708655,0.9861674,0.1742242,-5.452639,-28.51649,-23.5754,1009.318
1.834958076,-0.06123026,0.3893704,0.03491299,-0.02885876,0.9887424,0.1766014,-5.452639,-28.51649,-23.5754,1009.318
1.840034008,0.0006311983,0.3296368,-0.02615419,-0.03560457,0.9847096,0.1718252,-5.452639,-28.51649,-23.5754,1009.318
1.845109940,0.0006891051,0.2104892,-0.1481133,-0.03128584,0.9887286,0.1794806,-5.832991,-28.50354,-22.66936,1009.318
1.850185871,-0.06117319,0.2698459,-0.1480777,-0.0341601,0.9857197,0.1737382,-5.832991,-28.50354,-22.66936,1009.318
1.855261803,-0.06113476,0.1506425,0.03497857,-0.0361317,0.9871557,0.1742226,-5.832991,-28.50354,-22.66936,1009.318
1.860337734,-0.06109636,0.2100368,-0.02605032,-0.03031219,0.9882192,0.1746888,-5.832991,-28.50354,-22.66936,1009.318
1.865413666,0.1244693,-0.02803223,-0.02603396,-0.03426023,0.9910692,0.1727839,-5.832991,-28.50354,-22.66936,1009.318
1.870490074,0.06260699,-0.02801462,0.2789786,-0.03317845,0.9857744,0.1790042,-5.832991,-28.50354,-22.66936,1009.318
1.875566006,-0.06109776,-0.02801571,0.2788034,-0.03327447,0.9906149,0.175176,-5.832991,-28.50354,-22.66936,1009.318
1.880641937,0.06262548,-0.02803549,-0.1483627,-0.03374213,0.9896374,0.1756554,-5.832991,-28.50354,-22.66936,1009.318
1.885717869,-0.06113759,-0.02801788,-0.08728173,-0.03319716,0.9867447,0.1785259,-5.832991,-28.50354,-22.66936,1009.318
1.890793800,0.0007238137,-0.08745184,0.03474861,-0.03657822,0.985219,0.176617,-5.44842,-28.88769,-22.66082,1009.318
1.895869732,0.1244276,-0.08737821,0.03474595,-0.03517611,0.9886751,0.1799684,-5.44842,-28.88769,-22.66082,1009.318
1.900947094,0.0006646253,0.150539,-0.02626363,-0.03230162,0.9901019,0.1699053,-5.44842,-28.88769,-22.66082,1009.318
1.906021595,0.0006642081,0.0315039,-0.02622796,-0.03073757,0.9853232,0.1789983,-5.44842,-28.88769,-22.66082,1009.318
1.911097527,0.06254508,0.03146543,0.03477626,-0.03125405,0.9867623,0.1770847,-5.44842,-28.88769,-22.66082,1009.318
1.916173458,0.06252523,0.1503488,-0.02627167,-0.03027401,0.9868096,0.1813927,-5.44842,-28.88769,-22.66082,1009.32
1.921249390,0.0006629573,0.03125776,-0.02625516,-0.03468891,0.9886859,0.1804462,-5.44842,-28.88769,-22.66082,1009.32
1.926325321,-0.06121876,0.2096675,-0.02620034,-0.03417236,0.9867194,0.1770913,-5.44842,-28.88769,-22.66082,1009.32
1.931401253,0.06250456,0.09061403,-0.1482169,-0.03261476,0.9819114,0.1823529,-5.44842,-28.88769,-22.66082,1009.32
1.936477184,0.06246529,-0.02842077,0.03487782,-0.02594368,0.9887706,0.174679,-5.44842,-28.88769,-22.66082,1009.32
1.941553116,0.06240661,0.1499891,-0.08715792,-0.03129802,0.9892009,0.1775652,-5.448442,-28.12538,-22.67233,1009.32
1.946629524,0.1242098,-0.1475311,-0.0871415,-0.02842038,0.9911698,0.1746862,-5.448442,-28.12538,-22.67233,1009.32
1.951705456,0.06232825,0.09049865,0.03488875,-0.03177626,0.9887031,0.1770871,-5.448442,-28.12538,-22.67233,1009.32
1.956780434,-0.06143463,0.03095286,-0.087147,-0.03368355,0.9867375,0.178527,-5.448442,-28.12538,-22.67233,1009.321
1.961856365,0.06228882,0.1498739,-0.08713059,-0.03462622,0.985277,0.180444,-5.448442,-28.12538,-22.67233,1009.321
1.966932297,0.0003683912,0.1498358,-0.08707584,-0.0332167,0.9877114,0.1775687,-5.448442,-28.12538,-22.67233,1009.321
1.972008705,0.06217172,0.09027144,0.1569682,-0.02983968,0.9892187,0.1770829,-5.448442,-28.12538,-22.67233,1009.321
1.977084637,0.0003291024,0.03080054,0.03489408,-0.03370146,0.9877115,0.1785276,-5.448442,-28.12538,-22.67233,1009.321
1.979622364,-0.06153286,0.03079087,0.03488311,-0.03418132,0.9872064,0.1770917,-5.448442,-28.12538,-22.67233,1009.321
1.984698296,-0.1852374,0.03073414,0.03484203,-0.03134523,0.9916249,0.17613,-5.448442,-28.12538,-22.67233,1009.321
1.989774227,-0.2470023,0.1497114,0.1568531,-0.0341927,0.9876823,0.1756552,-5.835094,-28.50851,-23.12377,1009.321
1.994850159,0.1242269,0.2685952,-0.08723474,-0.03371438,0.9876528,0.1708648,-5.835094,-28.50851,-23.12377,1009.321
1.999926090,-0.1232403,0.08999705,-0.1482252,-0.03374867,0.9901355,0.1770925,-5.835094,-28.50851,-23.12377,1009.323
2.005002022,-0.1231629,0.0899405,-0.08714432,-0.03767226,0.9915136,0.1737499,-5.835094,-28.50851,-23.12377,1009.323
2.010078430,0.1243425,-0.02911256,0.03490511,-0.03264325,0.983365,0.1813961,-5.835094,-28.50851,-23.12377,1009.323
2.015154362,0.06240252,0.2087867,0.03488317,-0.03327689,0.9906039,0.1737392,-5.835094,-28.50851,-23.12377,1009.323
2.020230293,0.0005208934,-0.0292628,0.09582984,-0.03124348,0.9862826,0.1780422,-5.835094,-28.50851,-23.12377,1009.323
2.025306225,-0.1232032,-0.02924442,0.2178218,-0.03371284,0.9881875,0.1770912,-5.835094,-28.50851,-23.12377,1009.323
2.030382156,0.06240152,0.08973313,0.09565197,-0.03417639,0.986701,0.1746967,-5.835094,-28.50851,-23.12377,1009.323
2.035458088,0.0005004592,0.2086172,0.09561105,-0.02940622,0.9921515,0.1775627,-5.45266,-27.75418,-23.58691,1009.323
2.040534019,0.1242239,0.1490346,-0.0874506,-0.03073991,0.9847848,0.172293,-5.45266,-27.75418,-23.58691,1009.325
2.045609951,0.0004415391,0.2084299,-0.08745316,-0.03462043,0.984248,0.1732595,-5.45266,-27.75418,-23.58691,1009.325
2.050685883,0.0004412616,0.2082803,0.0956417,-0.03319548,0.9862247,0.1742152,-5.45266,-27.75418,-23.58691,1009.325
2.055761814,-0.06142088,0.08919029,-0.02641305,-0.03034889,0.9906909,0.1794796,-5.45266,-27.75418,-23.58691,1009.325
2.060837746,-0.06140172,0.2080934,-0.08742255,-0.03127439,0.9877253,0.1756485,-5.45266,-27.75418,-23.58691,1009.325
2.065913677,-0.06134372,0.08902222,-0.02639904,-0.03031879,0.9892446,0.1813944,-5.45266,-27.75418,-23.58691,1009.325
2.070989609,0.124261,0.326922,0.09559305,-0.03277105,0.9901718,0.1799638,-5.45266,-27.75418,-23.58691,1009.325
2.076065540,0.06241821,0.08879828,0.03452607,-0.02830146,0.9843226,0.1708503,-5.45266,-27.75418,-23.58691,1009.325
2.081147194,-0.1231871,0.2077204,0.03448521,-0.0322887,0.9901606,0.1775681,-5.45266,-27.75418,-23.58691,1009.325
2.086217880,0.0006528357,0.1480636,0.03448272,-0.03327535,0.9911386,0.1799655,-5.448431,-28.50654,-22.66657,1009.325
2.091293812,-0.06119,0.2669484,0.09544881,-0.03080268,0.9887211,0.1775637,-5.448431,-28.50654,-22.66657,1009.325
2.096369743,-0.2466788,0.1478215,0.1563958,-0.03463922,0.9857456,0.1780497,-5.448431,-28.50654,-22.66657,1009.325
2.101445675,-0.06097716,0.2071802,0.09536725,-0.03465794,0.9867159,0.1775714,-5.448431,-28.50654,-22.66657,1009.325
2.106526852,-0.06091942,0.1476172,0.09526901,-0.03469214,0.9886712,0.1785305,-5.448431,-28.50654,-22.66657,1009.325
2.111597538,-0.122743,0.3259539,0.2171847,-0.03025684,0.9853047,0.1756447,-5.448431,-28.50654,-22.66657,1009.325
2.116673470,0.00103839,0.02830445,0.03406581,-0.03076201,0.9867951,0.180436,-5.448431,-28.50654,-22.66657,1009.325
2.121749401,-0.06076582,0.2067348,0.09503216,-0.03313851,0.9833175,0.176129,-5.448431,-28.50654,-22.66657,1009.331
2.126825333,-0.06076651,0.2065488,0.2169863,-0.03428225,0.9925522,0.1756584,-5.448431,-28.50654,-22.66657,1009.331
2.131901264,-0.1225708,0.3848485,0.03390589,-0.03519402,0.9896491,0.179969,-5.450523,-28.89267,-23.11523,1009.331
2.136980534,0.001268826,0.2061586,0.1558601,-0.02786316,0.9872773,0.1742036,-5.450523,-28.89267,-23.11523,1009.331
2.142053127,-0.1224946,0.2060478,0.03376751,-0.03326221,0.9896152,0.1718229,-5.450523,-28.89267,-23.11523,1009.331
2.144591332,-0.1224561,0.3249609,0.0337569,-0.03516223,0.9876828,0.1775731,-5.450523,-28.89267,-23.11523,1009.331
2.149667263,-0.1223986,0.2057976,-0.0272904,-0.032793,0.9911274,0.1775698,-5.450523,-28.89267,-23.11523,1009.331
2.154743195,0.001402032,0.2651386,-0.02725409,-0.03127849,0.9882343,0.1785224,-5.450523,-28.89267,-23.11523,1009.331
2.159819126,-0.06046071,0.3244609,-0.1491741,-0.03714279,0.9896057,0.1780578,-5.450523,-28.89267,-23.11523,1009.331
2.164895058,-0.1222652,0.2647869,-0.02716242,-0.03262526,0.9818637,0.1761269,-5.450523,-28.89267,-23.11523,1009.328
2.169970989,-0.06032649,0.08615373,0.0338999,-0.02976237,0.9853485,0.1804328,-5.450523,-28.89267,-23.11523,1009.328
2.175046921,-0.06036633,0.1455512,0.0338786,-0.03478325,0.9930063,0.1723074,-5.450523,-28.89267,-23.11523,1009.328
2.180122852,0.001514026,0.1454784,-0.08815652,-0.03219995,0.9852871,0.1770859,-5.837187,-28.89464,-23.57243,1009.328
2.185198784,-0.1221912,0.204876,0.0339127,-0.03607312,0.9842559,0.1770942,-5.837187,-28.89464,-23.57243,1009.328
2.190274715,0.1253136,0.08580676,0.03392973,-0.03224716,0.987711,0.1756507,-5.837187,-28.89464,-23.57243,1009.328
2.195350647,0.06341184,0.264201,-0.08808626,-0.03366726,0.9857563,0.1775685,-5.837187,-28.89464,-23.57243,1009.328
2.200427055,0.1870763,-0.09284254,-0.1490378,-0.03086625,0.9926537,0.1823556,-5.837187,-28.89464,-23.57243,1009.328
2.205502987,0.1251358,0.1451342,0.09504513,-0.02696042,0.9911948,0.1751618,-5.837187,-28.89464,-23.57243,1009.328
2.210578919,-0.06052842,0.2640208,-0.02700925,-0.02875459,0.9834113,0.1799504,-5.837187,-28.89464,-23.57243,1009.328
2.215655327,-0.1842141,0.3233252,-0.02699228,-0.03170703,0.9847962,0.1756477,-5.837187,-28.89464,-23.57243,1009.328
2.220730782,0.06331018,0.08518504,0.1560071,-0.02901505,0.9970027,0.1742123,-5.837187,-28.89464,-23.57243,1009.328
2.225806713,0.001427986,0.263561,0.03391442,-0.03030162,0.9877396,0.1756463,-5.837187,-28.89464,-23.57243,1009.328
2.230882644,-0.06047364,0.2633767,0.216933,-0.03364281,0.9842843,0.1761308,-5.452639,-28.51649,-23.5754,1009.328
2.235958576,-0.1222975,0.2631925,0.03385267,-0.02935241,0.9887022,0.1722922,-5.452639,-28.51649,-23.5754,1009.328
2.241034508,0.001444736,0.1440493,-0.1491702,-0.0322048,0.985265,0.1742124,-5.452639,-28.51649,-23.5754,1009.328
2.246110439,-0.06037917,0.2629367,-0.02712014,-0.03024788,0.9848177,0.1756444,-5.452639,-28.51649,-23.5754,1009.33
2.251186371,0.06336305,0.3816933,-0.08814835,-0.02932481,0.9877722,0.1780387,-5.452639,-28.51649,-23.5754,1009.33
2.256262302,0.1252045,0.3219833,-0.02710522,-0.03760884,0.9886357,0.1794951,-5.452639,-28.51649,-23.5754,1009.33
2.261338234,-0.1222438,0.3217997,0.1559134,-0.0287863,0.9848502,0.1770778,-5.452639,-28.51649,-23.5754,1009.33
2.266414165,0.1252027,0.2621273,0.03383995,-0.03522977,0.9910696,0.1747018,-5.452639,-28.51649,-23.5754,1009.33
2.271490097,-0.1222651,0.440392,0.2168011,-0.03083528,0.9906837,0.1794807,-5.452639,-28.51649,-23.5754,1009.33
2.276566505,0.001535419,0.261686,0.1557347,-0.03371284,0.9881875,0.1770912,-5.450535,-28.51151,-23.12099,1009.33
2.281642437,-0.06030797,0.08307346,-0.1493594,-0.03177545,0.9887068,0.177566,-5.450535,-28.51151,-23.12099,1009.33
2.286718368,-0.1221319,0.2614507,0.09470457,-0.03471821,0.9901358,0.1790104,-5.450535,-28.51151,-23.12099,1009.33
2.291794300,-0.2457789,0.1423646,-0.2103895,-0.03515166,0.9872031,0.1785307,-5.450535,-28.51151,-23.12099,1009.33
2.296870231,-0.06003896,0.2017641,0.09471974,-0.03613009,0.9871631,0.1751804,-5.450535,-28.51151,-23.12099,1009.33
2.301946163,0.001880057,0.02318927,0.09464107,-0.02977779,0.9858061,0.1766017,-5.450535,-28.51151,-23.12099,1009.33
2.307022095,-0.05994412,0.0231747,0.155646,-0.03568444,0.9896235,0.1775755,-5.450535,-28.51151,-23.12099,1009.33
2.312098026,0.06373952,0.2016456,0.1555482,-0.03219753,0.9852981,0.1785227,-5.450535,-28.51151,-23.12099,1009.33
2.314636230,0.0637195,0.08260442,0.03348555,-0.03219342,0.9847891,0.1756488,-5.450535,-28.51151,-23.12099,1009.33
2.319712162,0.06371834,0.02308228,-0.02750407,-0.03083689,0.9906764,0.1785229,-5.450535,-28.51151,-23.12099,1009.33
2.324788093,0.001835886,-0.03643984,0.2165217,-0.02974116,0.9838619,0.1770794,-5.452627,-28.89764,-23.56965,1009.33
2.329864025,-0.06004656,0.1420685,0.1553596,-0.03379345,0.9925704,0.1770941,-5.452627,-28.89764,-23.56965,1009.33
2.334939957,0.00189189,0.02302012,0.1553003,-0.0342879,0.9925265,0.172306,-5.452627,-28.89764,-23.56965,1009.33
2.340015888,0.001851832,0.1419461,0.1552411,-0.03514593,0.9867014,0.1766147,-5.452627,-28.89764,-23.56965,1009.33
2.345091820,0.001870103,0.2608535,-0.0888841,-0.03660759,0.9871963,0.1804497,-5.452627,-28.89764,-23.56965,1009.33
2.350167751,-0.1218742,0.08227893,0.09411582,-0.03307824,0.9798976,0.17469,-5.452627,-28.89764,-23.56965,1009.33
2.355243683,0.3111576,0.2607127,0.03306895,-0.03423754,0.9906447,0.1809253,-5.452627,-28.89764,-23.56965,1009.33
2.360319614,-0.06015072,0.2606424,-0.02799707,-0.03371122,0.9881948,0.178049,-5.452627,-28.89764,-23.56965,1009.33
2.365395546,0.2491769,0.2010458,-0.02799865,-0.02692548,0.9897707,0.1799501,-5.452627,-28.89764,-23.56965,1009.33
2.370471477,0.001670134,0.1414305,0.03300669,-0.03327366,0.9906186,0.1756549,-5.452627,-28.89764,-23.56965,1009.328
2.375547409,-0.06021221,0.1413604,0.03300512,-0.03123291,0.985803,0.1789997,-5.063873,-28.50954,-22.66379,1009.328
2.380623340,0.001668043,0.0222937,0.09397213,-0.02830484,0.9853626,0.1794716,-5.063873,-28.50954,-22.66379,1009.328
2.385699272,-0.1220179,0.02229839,-0.0280624,-0.03177222,0.9887215,0.1794817,-5.063873,-28.50954,-22.66379,1009.328
2.390775680,0.001782518,-0.03727931,0.09396906,-0.0342407,0.9901026,0.1737411,-5.063873,-28.50954,-22.66379,1009.328
2.395851612,0.001820267,0.1412109,0.2159622,-0.03465544,0.9861996,0.1737397,-5.063873,-28.50954,-22.66379,1009.328
2.400927544,0.001838558,0.08168934,-0.08916973,-0.03272789,0.9877295,0.1790043,-5.063873,-28.50954,-22.66379,1009.328
2.406006813,-0.06002446,0.2005411,0.154914,-0.03582282,0.9969099,0.1751858,-5.063873,-28.50954,-22.66379,1009.328
2.411079407,-0.06000619,0.0220231,0.09379055,-0.03469303,0.9891949,0.1833201,-5.063873,-28.50954,-22.66379,1009.332
2.416155338,0.1255977,0.02200926,0.1547194,-0.02789091,0.989262,0.1789941,-5.063873,-28.50954,-22.66379,1009.332
2.421231270,0.0636569,-0.03751218,-0.0283219,-0.02931585,0.9872853,0.1780384,-5.063873,-28.50954,-22.66379,1009.332
2.426307201,0.06369465,0.1409408,-0.211344,-0.03377231,0.9916111,0.1790091,-5.450535,-28.51151,-23.12099,1009.332
2.431383133,0.001812207,-0.0970661,-0.02822883,-0.02742325,0.9902395,0.1785147,-5.450535,-28.51151,-23.12099,1009.332
2.436458588,0.06367293,0.081443,-0.0281536,-0.0337389,0.9896522,0.1775711,-5.450535,-28.51151,-23.12099,1009.332
2.441537857,-0.1219332,0.1408994,-0.089162,-0.03028862,0.987271,0.1780406,-5.450535,-28.51151,-23.12099,1009.332
2.446610451,0.1255714,0.3192777,-0.08914432,-0.03035616,0.9906578,0.1751693,-5.450535,-28.51151,-23.12099,1009.332
2.451686382,0.1255119,0.02165118,-0.1500952,-0.03237327,0.9939977,0.1699078,-5.450535,-28.51151,-23.12099,1009.332
2.456762791,0.1872755,0.08108914,-0.02800627,-0.03081817,0.989706,0.1790012,-5.450535,-28.51151,-23.12099,1009.332
2.461838245,0.125296,0.08101951,-0.02795034,-0.03660509,0.9866799,0.176618,-5.450535,-28.51151,-23.12099,1009.332
2.466914177,0.06333599,0.02149836,-0.1499658,-0.03276694,0.9896628,0.1770899,-5.450535,-28.51151,-23.12099,1009.332
2.471990108,0.1870394,0.08093642,0.03314918,-0.03078639,0.9877397,0.1766053,-5.065966,-28.89567,-23.11245,1009.332
2.477066040,0.1250989,0.3188226,0.09409694,-0.03459524,0.9833071,0.1775691,-5.065966,-28.89567,-23.11245,1009.332
2.479604244,0.001335846,0.3187225,0.09406738,-0.03270168,0.9852101,0.1679875,-5.065966,-28.89567,-23.11245,1009.332
2.484680176,0.06317744,0.1400741,-0.02798638,-0.03370961,0.9882022,0.1790069,-5.065966,-28.89567,-23.11245,1009.332
2.489756107,-0.06058598,0.3779045,-0.08895656,-0.02842046,0.9916972,0.1799547,-5.065966,-28.89567,-23.11245,1009.332
2.494832039,0.06313694,0.08029716,0.09408174,-0.03222843,0.9867406,0.176129,-5.065966,-28.89567,-23.11245,1009.332
2.499907970,0.1249786,0.3776166,-0.02797202,-0.03133385,0.9911489,0.1775665,-5.065966,-28.89567,-23.11245,1009.332
2.504983902,0.06305762,0.1395171,0.155028,-0.02939807,0.9916608,0.1770834,-5.065966,-28.89567,-23.11245,1009.332
2.510059833,-0.06066684,-0.03909341,0.09392366,-0.0302365,0.9843417,0.1770808,-5.065966,-28.89567,-23.11245,1009.332
2.515135765,-0.06064817,0.07981557,0.2158401,-0.03466359,0.9866902,0.1742189,-5.065966,-28.89567,-23.11245,1009.332
2.520211697,0.1249755,0.3771914,0.09372906,-0.03177134,0.9881977,0.1746921,-5.830898,-28.1174,-22.2207,1009.332
2.525287628,0.001192721,0.07958454,0.03268243,-0.03371615,0.9887002,0.180444,-5.830898,-28.1174,-22.2207,1009.332
2.530366421,-0.1843548,0.3769419,0.03266189,-0.03179578,0.9896697,0.1761298,-5.830898,-28.1174,-22.2207,1009.332
2.535439968,0.001346656,0.3172535,0.03264137,-0.03382846,0.994522,0.1775743,-5.830898,-28.1174,-22.2207,1009.332
2.540515900,0.00134581,0.07909844,-0.02838605,-0.0317477,0.9867221,0.1727754,-5.830898,-28.1174,-22.2207,1009.332
2.545591831,0.001325531,0.2575155,-0.02840655,-0.02981692,0.9882668,0.1799558,-5.830898,-28.1174,-22.2207,1009.332
2.550667763,0.06318656,0.2573725,-0.150345,-0.03558674,0.9842631,0.1770931,-5.830898,-28.1174,-22.2207,1009.332
2.555743694,-0.06059629,0.3761887,-0.02819842,-0.02835696,0.9882919,0.1804314,-5.830898,-28.1174,-22.2207,1009.332
2.560822964,-0.06061653,0.3164821,-0.08916846,-0.03217308,0.9838261,0.177085,-5.830898,-28.1174,-22.2207,1009.332
2.565895557,0.0631064,0.1972867,0.0328439,-0.03137048,0.9930931,0.1770888,-5.830898,-28.1174,-22.2207,1009.332
2.570971489,-0.12248,0.1971254,0.03280409,-0.03270094,0.9857412,0.1737349,-5.835094,-28.50851,-23.12377,1009.332
2.576047420,-0.2460684,0.1374939,0.09373291,-0.03621472,0.9915276,0.1727887,-5.835094,-28.50851,-23.12377,1009.332
2.581123352,-0.1222095,0.1374075,0.2156495,-0.03473927,0.9905677,0.1718268,-5.835094,-28.50851,-23.12377,1009.332
2.586199284,-0.1839752,0.1373399,0.1545263,-0.03562821,0.9861853,0.1737419,-5.835094,-28.50851,-23.12377,1009.332
2.591275215,-0.1220366,-0.04117581,-0.02859153,-0.03565339,0.9871262,0.1694322,-5.835094,-28.50851,-23.12377,1009.332
2.596351147,-0.06005924,-0.1006389,0.1543897,-0.03317353,0.9852691,0.1766092,-5.835094,-28.50851,-23.12377,1009.332
2.601427078,-0.06002151,-0.04108671,0.3372559,-0.03670757,0.9914911,0.1689584,-5.835094,-28.50851,-23.12377,1009.332
2.606507778,-0.1836492,-0.04107959,0.2150494,-0.03180386,0.989633,0.1713406,-5.835094,-28.50851,-23.12377,1009.332
2.611579418,-0.1216914,0.01839777,0.09293881,-0.03368186,0.9862175,0.1742163,-5.835094,-28.50851,-23.12377,1009.328
2.616655350,-0.1215955,0.0184049,0.09289959,-0.03958117,0.9895405,0.174232,-5.446327,-28.50156,-22.21216,1009.328
2.621731281,0.002165702,-0.1600735,0.09286039,-0.03809515,0.9881011,0.1742277,-5.446327,-28.50156,-22.21216,1009.328
2.626807213,0.1877694,-0.1004653,-0.1512064,-0.03469053,0.9886786,0.1794884,-5.446327,-28.50156,-22.21216,1009.328
2.631887913,0.002104684,-0.1004022,0.03187096,-0.03769913,0.9929745,0.1737508,-5.446327,-28.50156,-22.21216,1009.328
2.636959076,-0.1215621,-0.2787685,-0.02917514,-0.02931012,0.9867836,0.1761223,-5.446327,-28.50156,-22.21216,1009.328
2.642035007,0.06406102,-0.100164,0.03186926,-0.03319144,0.986243,0.1766099,-5.446327,-28.50156,-22.21216,1009.328
2.644573212,0.0640409,-0.1001325,-0.02914767,-0.03462615,0.9847496,0.1751755,-5.446327,-28.50156,-22.21216,1009.328
2.649649143,-0.121546,-0.04063672,-0.09007877,-0.029258,0.9838543,0.1751626,-5.446327,-28.50156,-22.21216,1009.328
2.654725075,0.311505,-0.1000441,0.03195331,-0.033642,0.984288,0.1766097,-5.446327,-28.50156,-22.21216,1009.332
2.659801006,0.249428,-0.278392,-0.1510108,-0.03523131,0.9905349,0.1684755,-5.446327,-28.50156,-22.21216,1009.332
2.664876938,0.1255476,-0.2187094,-0.0899474,-0.03281253,0.992094,0.1766126,-5.448431,-28.50654,-22.66657,1009.332
2.669952869,0.1873306,-0.1591018,-0.02888397,-0.03557616,0.9837834,0.1780506,-5.448431,-28.50654,-22.66657,1009.332
2.675028801,0.1872129,-0.2184908,-0.2118866,-0.03328342,0.9911019,0.1751763,-5.448431,-28.50654,-22.66657,1009.332
2.680104732,0.1870759,-0.4562719,-0.08972047,-0.02893525,0.9926162,0.1737305,-5.448431,-28.50654,-22.66657,1009.332
2.685180664,0.2488202,-0.3370447,-0.2116588,-0.03130375,0.9897026,0.1794812,-5.448431,-28.50654,-22.66657,1009.332
2.690256596,0.2486833,-0.5153559,-0.08958863,-0.03229516,0.9901313,0.1737367,-5.448431,-28.50654,-22.66657,1009.332
2.695332527,0.06296097,-0.336584,-0.02850627,-0.03271724,0.9867225,0.1746934,-5.448431,-28.50654,-22.66657,1009.332
2.700408459,0.001059554,-0.3363539,0.03251856,-0.03038706,0.9921004,0.1727756,-5.448431,-28.50654,-22.66657,1009.332
2.705484390,0.06297905,-0.09820551,-0.1505226,-0.0278672,0.987259,0.171809,-5.448431,-28.50654,-22.66657,1009.332
2.710563660,-0.06078424,-0.3955511,-0.2724227,-0.02791124,0.990225,0.177558,-5.448431,-28.50654,-22.66657,1009.332
2.715636253,0.06295824,-0.3358511,-0.08925,-0.03278809,0.990622,0.1751749,-5.448431,-28.50654,-22.66657,1009.332
2.720716953,-0.06076617,-0.09772172,-0.2721763,-0.0318935,0.9950302,0.1766123,-5.448431,-28.50654,-22.66657,1009.332
2.725788593,0.001095002,-0.09764163,-0.2720245,-0.02787131,0.987768,0.1746829,-5.448431,-28.50654,-22.66657,1009.332
2.730864525,-0.12261,-0.09756161,-0.08894788,-0.02883754,0.9872557,0.173248,-5.448431,-28.50654,-22.66657,1009.332
2.735940933,-0.06069052,-0.2164595,0.033141,-0.03134038,0.9916469,0.1790036,-5.448431,-28.50654,-22.66657,1009.328
2.741016388,-0.2461797,0.1404793,0.03312018,-0.03081244,0.9892044,0.1770851,-5.448431,-28.50654,-22.66657,1009.328
2.746092319,-0.1841826,0.08092079,-0.02792671,-0.03073103,0.9848253,0.1775612,-5.448431,-28.50654,-22.66657,1009.328
2.751168251,-0.122205,0.1403776,-0.02796666,-0.02989018,0.9921553,0.1790005,-5.448431,-28.50654,-22.66657,1009.328
2.756244183,-0.1839512,0.08078176,-0.02791077,-0.02933296,0.9882629,0.1785179,-5.448431,-28.50654,-22.66657,1009.328
2.761320114,-0.369363,0.08069363,0.2160961,-0.03565104,0.9876646,0.1761375,-5.065966,-28.89567,-23.11245,1009.328
2.766396046,-0.3691698,0.08066162,0.03295876,-0.0282983,0.9848647,0.1780345,-5.065966,-28.89567,-23.11245,1009.328
2.771475315,-0.2452336,0.08066702,0.03291889,-0.0268644,0.9863544,0.17899,-5.065966,-28.89567,-23.11245,1009.328
2.776547909,-0.1213364,0.1401053,0.2158998,-0.02781038,0.9854065,0.1842598,-5.065966,-28.89567,-23.11245,1009.328
2.781628609,-0.3686881,0.2589951,-0.02828266,-0.02877742,0.9848906,0.182346,-5.065966,-28.89567,-23.11245,1009.328
2.786699772,-0.1829487,0.2588324,0.03272285,-0.03031226,0.9887466,0.1799572,-5.065966,-28.89567,-23.11245,1009.328
2.791775703,-0.1209719,0.4371179,-0.02832379,-0.02690265,0.9882913,0.1775545,-5.065966,-28.89567,-23.11245,1009.328
2.796852112,-0.2446196,0.436862,0.2156833,-0.02990406,0.9931476,0.1813958,-5.065966,-28.89567,-23.11245,1009.328
2.801928043,-0.2444854,0.4961139,0.03260376,-0.02989995,0.9926386,0.1785219,-5.065966,-28.89567,-23.11245,1009.328
2.807003975,-0.1825088,0.3768057,0.2765535,-0.03075629,0.9862935,0.17852,-5.065966,-28.89567,-23.11245,1009.328
2.812079906,-0.2442366,0.4360579,0.1544234,-0.02984702,0.989713,0.1780411,-5.063873,-28.50954,-22.66379,1009.328
2.814617634,-0.182298,0.5548987,0.2153818,-0.02975988,0.9848322,0.1766011,-5.063873,-28.50954,-22.66379,1009.328
2.819693565,-0.120341,0.3166505,0.2152848,-0.03274257,0.9887182,0.1809207,-5.063873,-28.50954,-22.66379,1009.328
2.824769497,0.003438863,0.3164515,0.0321288,-0.03374213,0.9896374,0.1756554,-5.063873,-28.50954,-22.66379,1009.328
2.829845428,0.1271604,0.1378233,0.3371049,-0.03322396,0.9876783,0.1732583,-5.063873,-28.50954,-22.66379,1009.328
2.834921837,0.1271194,0.3161475,-0.02912924,-0.03325979,0.9896262,0.1732596,-5.063873,-28.50954,-22.66379,1009.328
2.839997768,-0.1822698,0.1969897,0.1538906,-0.03368032,0.9867522,0.1804427,-5.063873,-28.50954,-22.66379,1009.328
2.845073700,-0.1822136,0.3753327,0.0317993,-0.0375388,0.9847324,0.1785346,-5.063873,-28.50954,-22.66379,1009.328
2.850149631,-0.1202567,0.137216,0.09274791,-0.03413331,0.9847862,0.1790058,-5.063873,-28.50954,-22.66379,1009.328
2.855225563,-0.1202005,0.07764083,-0.09027361,-0.03327858,0.9911239,0.1780498,-5.063873,-28.50954,-22.66379,1009.328
2.860303879,-0.120125,0.1370436,-0.09023607,-0.03519637,0.9891106,0.1732638,-5.832991,-28.50354,-22.66936,1009.332
2.865377426,-0.0581877,-0.1009609,-0.09017938,-0.03705404,0.9847323,0.1775757,-5.832991,-28.50354,-22.66936,1009.332
2.870453358,0.2510999,0.2560362,-0.02913497,-0.03797872,0.9817703,0.1742235,-5.832991,-28.50354,-22.66936,1009.332
2.875532627,0.2509421,0.0774646,0.03192858,-0.03274007,0.9882018,0.177089,-5.832991,-28.50354,-22.66936,1009.332
2.880605221,-0.05842768,0.01788963,-0.02911756,-0.03133062,0.9911636,0.1794822,-5.832991,-28.50354,-22.66936,1009.332
2.885681152,0.06533276,0.1368563,0.1539215,-0.03022674,0.9838584,0.1775594,-5.832991,-28.50354,-22.66936,1009.332
2.890757084,-0.05843201,0.1368263,-0.1511906,-0.032666,0.984317,0.1785232,-5.832991,-28.50354,-22.66936,1009.332
2.895833015,-0.05837587,-0.04167034,-0.02913931,-0.03325817,0.9896336,0.1742175,-5.832991,-28.50354,-22.66936,1009.332
2.900908947,0.1272075,-0.1011331,0.03182841,-0.03472555,0.9906302,0.1799686,-5.832991,-28.50354,-22.66936,1009.332
2.905984879,0.003481619,0.01787093,0.09287283,-0.03364362,0.9842806,0.1756518,-6.221758,-28.51048,-23.58097,1009.332
2.911061287,0.06532186,0.1368936,0.03176924,-0.02884826,0.9887901,0.1828275,-6.221758,-28.51048,-23.58097,1009.332
2.916137218,0.1889462,0.1367702,0.09277536,-0.02787219,0.9882917,0.1794724,-6.221758,-28.51048,-23.58097,1009.332
2.921212196,0.1269657,0.1366283,0.03172933,-0.03318248,0.985756,0.1766095,-6.221758,-28.51048,-23.58097,1009.332
2.926289082,0.1887672,0.1960874,0.09269714,-0.02928487,0.9853153,0.1751635,-6.221758,-28.51048,-23.58097,1009.332
2.931364059,0.1268451,0.01751614,-0.1513504,-0.03236116,0.9940528,0.1770917,-6.221758,-28.51048,-23.58097,1009.332
2.936439991,0.06492295,-0.04202117,-0.09028676,-0.03375116,0.9906518,0.1809242,-6.221758,-28.51048,-23.58097,1009.332
2.941516399,0.1267246,-0.1014837,-0.1512561,-0.03375197,0.9906482,0.1804453,-6.221758,-28.51048,-23.58097,1009.331
2.946592331,0.06480256,0.01746447,0.1538351,-0.03434253,0.9959722,0.1770975,-6.221758,-28.51048,-23.58097,1009.331
2.951668262,-0.1826662,0.195939,-0.02926307,-0.03171849,0.9857996,0.1794797,-6.221758,-28.51048,-23.58097,1009.331
2.956744194,0.06485717,0.07683803,-0.02924469,-0.03125155,0.9862459,0.1732529,-5.063873,-28.50954,-22.66379,1009.331
2.961820126,-0.05886843,0.1957302,0.0317806,-0.03215436,0.9828559,0.1775632,-5.063873,-28.50954,-22.66379,1009.331
2.966896057,0.1266764,0.2550775,-0.0902532,-0.03418616,0.9871843,0.1742181,-5.063873,-28.50954,-22.66379,1009.331
2.971971989,0.00289253,0.01701761,-0.09021567,-0.02975907,0.9848359,0.17708,-5.063873,-28.50954,-22.66379,1009.331
2.977047920,0.06473314,0.1359287,0.03187401,-0.03464656,0.9862399,0.1790078,-5.063873,-28.50954,-22.66379,1009.331
2.979586124,0.1265747,0.135886,-0.02914292,-0.03312383,0.9823288,0.1742127,-5.063873,-28.50954,-22.66379,1009.331
2.984662056,0.06465272,0.1357819,-0.02914378,-0.03421068,0.9891837,0.1809243,-5.063873,-28.50954,-22.66379,1009.331
2.989738464,0.06459267,0.3141634,-0.3341409,-0.02736297,0.9868195,0.1770757,-5.063873,-28.50954,-22.66379,1009.331
2.994813919,0.0027291,-0.1023817,0.03207219,-0.03466359,0.9866902,0.1742189,-5.063873,-28.50954,-22.66379,1009.331
2.999890327,-0.05911504,0.1950525,-0.0289357,-0.02985671,0.989669,0.172294,-5.063873,-28.50954,-22.66379,1009.331
3.004965782,-0.05903904,0.1354411,-0.08988611,-0.03127196,0.9877363,0.1770853,-5.068081,-28.51949,-23.57262,1009.331
3.010041714,0.002898785,0.01637811,-0.08986798,-0.02603162,0.9936478,0.1756401,-5.068081,-28.51949,-23.57262,1009.331
3.015117645,-0.05888716,0.075782,-0.2118445,-0.03178845,0.9891754,0.1751717,-5.068081,-28.51949,-23.57262,1009.331
3.020195484,-0.05883073,0.3136154,-0.02874818,-0.02778094,0.9829018,0.1751586,-5.068081,-28.51949,-23.57262,1009.331
3.025269508,-0.1206556,0.2540042,-0.02867262,-0.03235793,0.9940674,0.1790074,-5.068081,-28.51949,-23.57262,1009.331
3.030345440,-0.2443036,0.1348481,0.03237147,-0.03129311,0.9886956,0.1751702,-5.068081,-28.51949,-23.57262,1009.331
3.035421371,0.003277929,0.1942149,0.09337722,-0.03510923,0.9842298,0.1718238,-5.068081,-28.51949,-23.57262,1009.331
3.040497303,-0.2440938,0.3130707,0.09331855,-0.02942406,0.9925981,0.1722948,-5.068081,-28.51949,-23.57262,1009.331
3.045573235,0.003506952,0.07489965,0.1542668,-0.02946392,0.9945276,0.1699015,-5.068081,-28.51949,-23.57262,1009.331
3.050649166,-0.1201801,0.1343042,0.2761838,-0.0322048,0.985265,0.1742124,-5.068081,-28.51949,-23.57262,1009.331
3.055725575,-0.3675326,0.1342011,0.2150225,-0.03126543,0.9872383,0.1756482,-6.219654,-28.50551,-23.12656,1009.331
3.060803890,-0.243578,0.2530573,0.1538613,-0.03179901,0.989655,0.1742141,-6.219654,-28.50551,-23.12656,1009.331
3.065877438,-0.3053063,0.1934467,-0.09024381,-0.03365184,0.9852986,0.1813996,-6.219654,-28.50551,-23.12656,1009.331
3.070953369,-0.1814296,0.01485841,0.03178839,-0.03665391,0.9890965,0.174225,-6.219654,-28.50551,-23.12656,1009.331
3.076029301,-0.1194538,0.07433801,-0.02925767,-0.03363305,0.9838009,0.1766094,-6.219654,-28.50551,-23.12656,1009.331
3.081105232,-0.1193593,0.1932505,0.03178679,-0.03813597,0.9910818,0.1818924,-6.219654,-28.50551,-23.12656,1009.331
3.086181164,-0.05742246,0.01464359,0.09277374,-0.03326793,0.990117,0.1737389,-6.219654,-28.50551,-23.12656,1009.331
3.091257095,-0.1811101,0.07410464,0.03174686,-0.03651068,0.9818321,0.1794883,-6.219654,-28.50551,-23.12656,1009.331
3.096333027,-0.1191928,0.01456914,0.2147668,-0.03518499,0.9886347,0.1747002,-6.219654,-28.50551,-23.12656,1009.331
3.101408958,0.06640939,-0.04492894,0.2757155,-0.03028774,0.9867472,0.173251,-5.835106,-28.12736,-23.12953,1009.331
3.106484890,0.1900331,-0.1044083,0.03157212,-0.03224473,0.987722,0.1770875,-5.835106,-28.12736,-23.12953,1009.329
3.111560822,0.1899526,-0.1043428,-0.09046155,-0.03710286,0.9871488,0.1751827,-5.835106,-28.12736,-23.12953,1009.329
3.116636753,-0.1194372,-0.1042772,-0.02939781,-0.03087514,0.9926133,0.1770874,-5.835106,-28.12736,-23.12953,1009.329
3.121718407,0.1280658,-0.1636446,0.09261533,-0.03129068,0.9887066,0.176607,-5.835106,-28.12736,-23.12953,1009.329
3.126789093,-0.1194232,-0.2230307,-0.09044444,-0.03075298,0.9857808,0.1751672,-5.835106,-28.12736,-23.12953,1009.329
3.131865025,0.1280798,-0.1634577,0.09263313,-0.03032034,0.9887099,0.175168,-5.835106,-28.12736,-23.12953,1009.329
3.136940956,0.1898613,-0.222844,-0.02940056,-0.03284094,0.9930202,0.1703872,-5.835106,-28.12736,-23.12953,1009.329
3.142016888,0.004156391,-0.1632337,0.09267007,-0.03183976,0.9921083,0.1766104,-5.835106,-28.12736,-23.12953,1009.329
3.144554615,0.1897407,-0.04420458,-0.1513867,-0.03424893,0.9911206,0.1794889,-5.835106,-28.12736,-23.12953,1009.331
3.149630547,0.1277596,-0.0441955,-0.02929694,-0.02790229,0.989738,0.1775577,-5.065977,-28.51452,-23.1182,1009.331
3.154706478,0.06585635,-0.2225972,0.09271614,-0.03231718,0.9916142,0.1766112,-5.065977,-28.51452,-23.1182,1009.331
3.159782410,0.06581498,-0.04404657,0.0316893,-0.03128988,0.9887103,0.1770859,-5.065977,-28.51452,-23.1182,1009.331
3.164858818,0.0657542,0.07494027,-0.0903061,-0.02936871,0.9896834,0.1732507,-5.065977,-28.51452,-23.1182,1009.331
3.169934750,0.1894172,0.07491188,-0.02922329,-0.03564773,0.9871519,0.1727847,-5.065977,-28.51452,-23.1182,1009.331
3.175010681,0.1893176,-0.1035459,-0.0292241,-0.0283806,0.9897676,0.1823481,-5.065977,-28.51452,-23.1182,1009.331
3.180086613,0.003632539,0.07489248,-0.2122265,-0.03275791,0.9886484,0.1718211,-5.065977,-28.51452,-23.1182,1009.331
3.185162544,0.2510583,-0.2225432,-0.0900985,-0.03134934,0.9921339,0.1790039,-5.065977,-28.51452,-23.1182,1009.331
3.190238476,0.1271963,-0.1629705,0.09294052,-0.02887829,0.989709,0.1756442,-5.065977,-28.51452,-23.1182,1009.331
3.195319176,0.06527393,-0.2818086,-0.02905503,-0.03424643,0.9906043,0.1756571,-5.065977,-28.51452,-23.1182,1009.331
3.200390339,0.06521349,-0.1627285,-0.02903678,-0.02928318,0.9847953,0.1708529,-5.452616,-29.2788,-23.56389,1009.331
3.205466270,-0.0584929,-0.04366704,-0.02905687,-0.03274411,0.9881834,0.1746943,-5.452616,-29.2788,-23.56389,1009.331
3.210542202,0.12711,0.07530088,0.09293688,-0.03127762,0.9877106,0.1737328,-5.452616,-29.2788,-23.56389,1009.331
3.215619087,0.188892,-0.1626087,-0.02911617,-0.03570316,0.9905939,0.1770973,-5.452616,-29.2788,-23.56389,1009.331
3.220694065,0.003246056,-0.04354738,0.09289679,-0.03073023,0.9848289,0.1780401,-5.452616,-29.2788,-23.56389,1009.331
3.225769996,-0.05861785,0.1349468,0.09281926,-0.02889539,0.9906867,0.1761238,-5.452616,-29.2788,-23.56389,1009.331
3.230845928,0.003280842,-0.2220529,0.153787,-0.03179909,0.9901825,0.1794826,-5.452616,-29.2788,-23.56389,1009.331
3.235921860,-0.1822874,-0.04352136,0.03167659,-0.032806,0.991596,0.1751755,-5.452616,-29.2788,-23.56389,1009.331
3.240998268,0.003451601,0.07550254,0.1536705,-0.0303497,0.9906872,0.1790007,-5.452616,-29.2788,-23.56389,1009.331
3.246074200,-0.243998,0.1349253,-0.1514606,-0.03077905,0.9872454,0.1756471,-5.063885,-28.12839,-22.66954,1009.331
3.251150131,0.003563848,-0.1626041,-0.02937078,-0.03026667,0.9863153,0.1804346,-5.063885,-28.12839,-22.66954,1009.331
3.256226063,-0.1201621,0.1349054,0.03167376,-0.0292801,0.9858647,0.1833056,-5.063885,-28.12839,-22.66954,1009.331
3.261301994,-0.1200672,0.1943282,-0.1513669,-0.03226184,0.9886997,0.1775671,-5.063885,-28.12839,-22.66954,1009.331
3.266377926,-0.1199918,0.1347733,0.2147505,-0.03175835,0.9877291,0.1770864,-5.063885,-28.12839,-22.66954,1009.331
3.271453857,-0.1199747,0.2536291,-0.02935454,-0.03119628,0.9838588,0.1794773,-5.063885,-28.12839,-22.66954,1009.331
3.276529789,0.1893517,0.1939622,0.03165165,-0.02646919,0.9912241,0.1780342,-5.063885,-28.12839,-22.66954,1009.331
3.281605720,-0.05813697,0.1938777,0.1536839,-0.03612847,0.9871705,0.1761383,-5.063885,-28.12839,-22.66954,1009.331
3.286681652,0.003722543,0.3722227,-0.1514472,-0.03175505,0.9872165,0.1737336,-5.063885,-28.12839,-22.66954,1009.331
3.291757583,0.0656015,0.3125186,0.03163037,-0.03271482,0.9867335,0.1761301,-5.063885,-28.12839,-22.66954,1009.331
3.296833515,-0.1200059,0.1339115,0.1536052,-0.03213895,0.9823982,0.1813943,-5.063873,-28.50954,-22.66379,1009.331
3.301909447,0.003754382,0.1933163,0.2145156,-0.03367452,0.9857232,0.1732582,-5.063873,-28.50954,-22.66379,1009.331
3.306985378,-0.1199328,0.07425442,0.2143616,-0.02932804,0.9877576,0.176123,-5.063873,-28.50954,-22.66379,1009.332
3.312061310,0.003846802,0.3715777,0.1532392,-0.03710542,0.9881925,0.1842829,-5.063873,-28.50954,-22.66379,1009.332
3.314599514,0.003845594,0.311972,0.09218418,-0.03414637,0.9857821,0.18188,-5.063873,-28.50954,-22.66379,1009.332
3.319675445,-0.05796038,0.07385766,0.09212627,-0.03081817,0.989706,0.1790012,-5.063873,-28.50954,-22.66379,1009.332
3.324751377,-0.05786566,0.2522594,0.09206839,-0.03612928,0.9871668,0.1756593,-5.063873,-28.50954,-22.66379,1009.332
3.329827308,-0.05786818,0.192612,0.09202972,-0.03700926,0.9822974,0.1775741,-5.063873,-28.50954,-22.66379,1009.332
3.334903240,-0.05779296,0.1925097,-0.0300036,-0.035172,0.988166,0.1770945,-5.063873,-28.50954,-22.66379,1009.332
3.339979172,-0.05775665,0.1923513,0.09200992,-0.03426353,0.991582,0.1761367,-5.063873,-28.50954,-22.66379,1009.332
3.345055103,-0.05770094,0.1922305,-0.09106864,-0.03077824,0.9872491,0.176126,-5.44842,-28.88769,-22.66082,1009.332
3.350133896,-0.1195071,0.3705392,0.09195183,-0.03231388,0.9911015,0.1732584,-5.44842,-28.88769,-22.66082,1009.334
3.355207443,0.06613412,0.3703251,0.03084881,-0.03653594,0.9833004,0.1804471,-5.44842,-28.88769,-22.66082,1009.334
3.360283375,-0.3668821,0.1916069,0.09183635,-0.03126381,0.9872456,0.176606,-5.44842,-28.88769,-22.66082,1009.334
3.365360260,-0.05740067,0.1319789,-0.03023518,-0.0303831,0.9926462,0.1804388,-5.44842,-28.88769,-22.66082,1009.334
3.370435238,0.00445838,0.310288,-0.03025452,-0.03464649,0.9857126,0.1737393,-5.44842,-28.88769,-22.66082,1009.334
3.375511169,0.004494449,0.4290523,0.2137921,-0.03410152,0.9828199,0.1766098,-5.44842,-28.88769,-22.66082,1009.334
3.380591869,0.004472191,0.3098796,0.03071376,-0.03282883,0.9930754,0.1775711,-5.44842,-28.88769,-22.66082,1009.334
3.385663032,0.004488816,0.2502334,0.0306753,-0.03662873,0.9881556,0.1785347,-5.44842,-28.88769,-22.66082,1009.334
3.390743732,-0.1810607,0.131117,0.09168211,-0.03570639,0.9905791,0.1751816,-5.835083,-28.88967,-23.11802,1009.334
3.395814895,-0.2427894,0.3095015,0.03059843,-0.03518345,0.9891694,0.1809266,-5.835083,-28.88967,-23.11802,1009.334
3.400890827,-0.05705129,0.1903479,-0.03042771,-0.03173874,0.9862351,0.1727751,-5.835083,-28.88967,-23.11802,1009.334
3.405966759,-0.2425622,0.3092061,0.03057916,-0.03659452,0.9862003,0.1775755,-5.835083,-28.88967,-23.11802,1009.334
3.411042213,-0.1187444,0.1900714,0.09158603,-0.03661493,0.9876906,0.1814079,-5.835083,-28.88967,-23.11802,1009.334
3.416118622,0.1287388,0.01154125,-0.09139643,-0.03327043,0.9906333,0.1775706,-5.835083,-28.88967,-23.11802,1009.334
3.421197891,-0.05686935,0.1304932,0.09166257,-0.03222601,0.9867517,0.1775658,-5.835083,-28.88967,-23.11802,1009.334
3.426270008,-0.05683362,-0.04801822,-0.03038968,-0.03575205,0.9935378,0.1799727,-5.835083,-28.88967,-23.11802,1009.334
3.431345940,0.005044511,0.1899677,0.03063633,-0.03379264,0.9925741,0.177573,-5.835083,-28.88967,-23.11802,1009.334
3.436422825,-0.05680108,-0.0480887,0.03061708,-0.03468319,0.9881842,0.1785302,-5.835083,-28.88967,-23.11802,1009.334
3.441497803,-0.0567654,-0.166999,0.03061702,-0.02993981,0.9945682,0.1761286,-5.452639,-28.51649,-23.5754,1009.334
3.446573734,-0.118611,0.01157273,-0.03038997,-0.03613089,0.9871594,0.1747015,-5.452639,-28.51649,-23.5754,1009.334
3.451649666,-0.0566941,-0.1668826,-0.2133916,-0.03277751,0.9901425,0.1761324,-5.452639,-28.51649,-23.5754,1009.334
3.456725597,0.005242252,-0.1073636,0.0307126,-0.0312597,0.9867366,0.1737322,-5.452639,-28.51649,-23.5754,1009.334
3.461802006,-0.1184848,-0.1667851,-0.0912822,-0.03623594,0.9930143,0.1761421,-5.452639,-28.51649,-23.5754,1009.334
3.466877937,-0.0565679,-0.1072288,-0.09122485,-0.02832833,0.9857835,0.1708513,-5.452639,-28.51649,-23.5754,1009.334
3.471953869,-0.0565518,-0.166669,-0.2131814,-0.03270175,0.9857375,0.173256,-5.452639,-28.51649,-23.5754,1009.336
3.477029800,0.1908729,-0.2260159,-0.09109111,-0.03168589,0.9838369,0.1775628,-5.452639,-28.51649,-23.5754,1009.336
3.479567528,0.00522732,-0.106967,-0.03005558,-0.03265785,0.9838263,0.1780439,-5.452639,-28.51649,-23.5754,1009.336
3.484643459,0.1289089,-0.1068998,-0.1520313,-0.02833163,0.9862962,0.1742041,-5.452639,-28.51649,-23.5754,1009.336
3.489719391,0.06700491,-0.1663403,-0.151955,-0.03422044,0.989667,0.1804457,-5.065977,-28.51452,-23.1182,1009.336
3.494795322,0.2525484,-0.04727659,0.0311037,-0.02798208,0.9941245,0.1780395,-5.065977,-28.51452,-23.1182,1009.336
3.499871731,-0.05688069,0.01224203,-0.09085301,-0.03278977,0.9911421,0.1794855,-5.065977,-28.51452,-23.1182,1009.336
3.504947662,0.1287406,-0.04721721,-0.2128289,-0.03517038,0.9881734,0.1780524,-5.065977,-28.51452,-23.1182,1009.336
3.510023594,-0.304315,0.07175295,0.09228186,-0.0278738,0.9882843,0.1785146,-5.065977,-28.51452,-23.1182,1009.336
3.515099525,-0.1185965,-0.04723262,-0.02982828,-0.03123775,0.985781,0.1761262,-5.065977,-28.51452,-23.1182,1009.334
3.520175457,-0.1804033,-0.04718426,0.1532304,-0.03530149,0.9954929,0.1799729,-5.065977,-28.51452,-23.1182,1009.334
3.525251388,-0.118467,0.3691932,0.03112028,-0.02986574,0.9906834,0.1775628,-5.065977,-28.51452,-23.1182,1009.334
3.530327320,0.005370032,0.2500207,-0.02992535,-0.03379837,0.9930757,0.179489,-5.065977,-28.51452,-23.1182,1009.334
3.535403252,-0.1801606,0.07145294,0.3361158,-0.03276936,0.9896517,0.1756531,-5.065977,-28.51452,-23.1182,1009.334
3.540479183,0.005538142,0.01195649,0.1529414,-0.03611217,0.9861891,0.1751798,-5.063873,-28.50954,-22.66379,1009.334
3.545555115,-0.1181308,0.1308708,0.09180005,-0.0312597,0.9867366,0.1737322,-5.063873,-28.50954,-22.66379,1009.334
3.550631046,-0.05613638,0.1308073,0.09174237,-0.03178433,0.9886664,0.1722978,-5.063873,-28.50954,-22.66379,1009.334
3.555706978,-0.1798248,0.3091732,0.03063949,-0.0332418,0.9881248,0.1679905,-5.063873,-28.50954,-22.66379,1009.336
3.560782909,0.005854284,0.308979,0.1526532,-0.0307408,0.9853085,0.1770826,-5.063873,-28.50954,-22.66379,1009.336
3.565858841,-0.1796767,0.1898257,0.09153126,-0.03268876,0.9852689,0.1756503,-5.063873,-28.50954,-22.66379,1009.336
3.570934772,0.006002352,0.2491393,-0.03050174,-0.03381224,0.994068,0.1818843,-5.063873,-28.50954,-22.66379,1009.336
3.576011181,0.005979146,0.3084717,0.09145459,-0.0331206,0.9823436,0.1761284,-5.063873,-28.50954,-22.66379,1009.336
3.581087112,0.00597539,0.3677482,-0.09162362,-0.03038141,0.9921262,0.1761281,-5.063873,-28.50954,-22.66379,1009.336
3.586163521,-0.05592909,0.3675172,-0.09154689,-0.0337828,0.9915634,0.1727831,-4.679302,-28.8937,-22.65525,1009.336
3.591238975,-0.3033026,0.2482897,0.03050529,-0.03561771,0.986233,0.1799679,-4.679302,-28.8937,-22.65525,1009.336
3.596314907,-0.2412501,0.06968562,0.03046695,-0.03526559,0.9930176,0.1747031,-4.679302,-28.8937,-22.65525,1009.336
3.601390839,-0.2410986,0.24809,0.274418,-0.03126535,0.9867108,0.1703797,-4.679302,-28.8937,-22.65525,1009.336
3.606466770,-0.1790658,0.3073857,0.1522701,-0.03421222,0.988649,0.174698,-4.679302,-28.8937,-22.65525,1009.336
3.611542702,-0.2408152,0.2477036,0.335176,-0.02978998,0.9862784,0.1746864,-4.679302,-28.8937,-22.65525,1009.336
3.616618633,0.006783545,0.00968571,0.1519639,-0.04148684,0.9875823,0.1766298,-4.679302,-28.8937,-22.65525,1009.336
3.621694565,-0.1787869,-0.04982799,0.09082315,-0.03035286,0.9901451,0.1718165,-4.679302,-28.8937,-22.65525,1009.336
3.626770496,0.006852732,0.1286888,0.02974001,-0.0420473,0.9914601,0.1751967,-4.679302,-28.8937,-22.65525,1009.336
3.631846428,-0.116817,0.06911902,0.09070908,-0.0341032,0.9833399,0.1809205,-4.679302,-28.8937,-22.65525,1009.336
3.636926651,-0.3022903,-0.1093725,-0.03138091,-0.03420657,0.9886747,0.1780505,-5.835083,-28.88967,-23.11802,1009.338
3.641998291,-0.05473071,-0.04981486,0.02962656,-0.03560061,0.9852554,0.1794883,-5.835083,-28.88967,-23.11802,1009.338
3.647074699,-0.1164999,-0.1092725,0.09057653,-0.032679,0.9847856,0.1761289,-5.835083,-28.88967,-23.11802,1009.338
3.649612427,-0.05460142,-0.228216,0.09054808,-0.03368759,0.9867192,0.1761324,-5.835083,-28.88967,-23.11802,1009.338
3.654688358,-0.05458656,-0.04960587,-0.03152264,-0.03470029,0.9891618,0.1790098,-5.835083,-28.88967,-23.11802,1009.338
3.659764290,-0.1163947,-0.1090263,-0.09250975,-0.03165087,0.9818853,0.1770826,-5.835083,-28.88967,-23.11802,1009.338
3.664840221,0.06922515,-0.04948752,-0.03142555,-0.03802181,0.9836852,0.1699145,-5.835083,-28.88967,-23.11802,1009.338
3.669916153,0.007300363,-0.2873374,0.02962027,-0.0327124,0.9867445,0.1775669,-5.835083,-28.88967,-23.11802,1009.338
3.674992084,0.0691382,-0.2871009,-0.3364015,-0.03028209,0.9867729,0.1766035,-5.835083,-28.88967,-23.11802,1009.338
3.680068016,0.007271777,-0.4653499,-0.1532077,-0.03211773,0.9809116,0.1780409,-5.835083,-28.88967,-23.11802,1009.34
3.685144424,0.2546369,-0.3460984,-0.2140993,-0.02735482,0.9863288,0.1765965,-5.448442,-28.12538,-22.67233,1009.34
3.690224647,0.1926345,-0.2863733,-0.03094401,-0.03078881,0.9877287,0.1751685,-5.448442,-28.12538,-22.67233,1009.34
3.695296287,0.006986224,-0.1672529,-0.1529001,-0.03422198,0.9891323,0.1742194,-5.448442,-28.12538,-22.67233,1009.34
3.700372219,0.1306667,-0.1076776,-0.0918546,-0.03222278,0.9867663,0.1794815,-5.448442,-28.12538,-22.67233,1009.34
3.705448151,0.06874217,-0.2861142,-0.2747601,-0.03273515,0.9876965,0.174694,-5.448442,-28.12538,-22.67233,1009.34
3.710524082,0.1305803,-0.2264268,-0.09160512,-0.0326823,0.9852983,0.1794817,-5.448442,-28.12538,-22.67233,1009.34
3.715600014,0.1923601,-0.2263032,-0.0915284,-0.03379433,0.9930941,0.1818837,-5.448442,-28.12538,-22.67233,1009.34
3.720675945,0.1303774,-0.2261611,-0.03048315,-0.03273603,0.9882202,0.1794836,-5.448442,-28.12538,-22.67233,1009.341
3.725751877,0.06847251,-0.2259442,-0.1524395,-0.03129472,0.9886882,0.1742124,-5.448442,-28.12538,-22.67233,1009.341
3.730827808,-0.1171755,0.01207869,-0.09139432,-0.02834059,0.9867831,0.1742044,-5.835094,-28.50851,-23.12377,1009.341
3.735903740,0.006602376,-0.04732438,-0.274281,-0.03131755,0.9901676,0.176608,-5.835094,-28.50851,-23.12377,1009.341
3.740979671,-0.0552442,-0.1068023,-0.03011935,-0.02791521,0.9896792,0.1698949,-5.835094,-28.50851,-23.12377,1009.341
3.746055603,-0.1170714,-0.1067726,0.03090649,-0.03381459,0.9935296,0.175179,-5.835094,-28.50851,-23.12377,1009.341
3.751131535,-0.2407604,-0.04725394,-0.1520953,-0.02981773,0.9882631,0.1794769,-5.835094,-28.50851,-23.12377,1009.341
3.756207466,-0.1787473,0.0122273,0.03094429,-0.03033744,0.9896875,0.1756476,-5.835094,-28.50851,-23.12377,1009.341
3.761283874,-0.2404969,0.07167117,-0.09103149,-0.02745738,0.9916674,0.1742054,-5.835094,-28.50851,-23.12377,1009.341
3.766359806,-0.3640112,0.07164484,0.09200812,-0.02975907,0.9848359,0.17708,-5.835094,-28.50851,-23.12377,1009.341
3.771435738,-0.1782164,-0.04734066,-0.1519815,-0.02645216,0.9907738,0.1828232,-5.835094,-28.50851,-23.12377,1009.341
3.776511669,-0.3017698,0.1906074,-0.02989137,-0.03125075,0.9862496,0.1737318,-5.835094,-28.50851,-23.12377,1009.341
3.781588077,-0.4252845,-0.106957,0.03111516,-0.03419842,0.988184,0.1775712,-5.452627,-28.89764,-23.56965,1009.341
3.786663532,-0.1157275,0.48785,-0.151906,-0.03071716,0.9838328,0.1751659,-5.452627,-28.89764,-23.56965,1009.341
3.791739464,-0.2393202,0.2496065,0.09215963,-0.02634623,0.9843953,0.176593,-5.452627,-28.89764,-23.56965,1009.341
3.796815395,-0.1154461,0.249431,-0.02991211,-0.03127607,0.9882453,0.1799592,-5.452627,-28.89764,-23.56965,1009.341
3.801891327,-0.1772355,0.4872113,0.1531083,-0.02879284,0.9853482,0.1785149,-5.452627,-28.89764,-23.56965,1009.343
3.806967258,-0.1152234,0.4273977,-0.09093893,-0.0312655,0.9877657,0.1809167,-5.452627,-28.89764,-23.56965,1009.343
3.809505463,-0.05332534,0.3082855,0.0921104,-0.02989018,0.9921553,0.1790005,-5.452627,-28.89764,-23.56965,1009.343
3.814585209,-0.2388386,0.6649694,0.214028,-0.03558512,0.9842704,0.1780509,-5.452627,-28.89764,-23.56965,1009.343
3.819657326,-0.1150231,0.6050627,0.1529058,-0.02886449,0.989244,0.1785175,-5.452627,-28.89764,-23.56965,1009.343
3.824733257,0.07065418,0.6047013,0.03079593,-0.03224884,0.988231,0.1799614,-5.452627,-28.89764,-23.56965,1009.343
3.829809189,-0.1767793,0.6043214,0.1528096,-0.03704508,0.9842453,0.1775753,-5.832979,-28.88469,-22.6636,1009.343
3.834885120,-0.238569,0.6039044,0.09168751,-0.03221874,0.9867847,0.1818761,-5.832979,-28.88469,-22.6636,1009.343
3.839961052,-0.1765573,0.6629952,0.2136246,-0.03074403,0.9852938,0.1751669,-5.832979,-28.88469,-22.6636,1009.343
3.845036983,-0.2382694,0.6625974,0.1524643,-0.03029185,0.9872563,0.1761249,-5.832979,-28.88469,-22.6636,1009.343
3.850112915,-0.1762578,0.6622185,0.2133563,-0.03463834,0.9852219,0.1732601,-5.832979,-28.88469,-22.6636,1009.343
3.855190277,-0.2380089,0.5428246,0.2132605,-0.03709228,0.9866691,0.1761402,-5.832979,-28.88469,-22.6636,1009.343
3.860264778,-0.2997213,0.6614054,0.1521005,-0.03713949,0.9890931,0.174705,-5.832979,-28.88469,-22.6636,1009.343
3.865340710,-0.2376711,0.7204788,0.1520049,-0.03406085,0.980894,0.1794821,-5.832979,-28.88469,-22.6636,1009.343
3.870416641,-0.1756988,0.4226189,0.09090254,-0.03506049,0.9823406,0.1794853,-5.832979,-28.88469,-22.6636,1009.343
3.875493050,-0.1755496,0.6007829,-0.09221366,-0.03178683,0.9891828,0.1761295,-5.835094,-28.50851,-23.12377,1009.343
3.880568981,-0.2372428,0.6004055,0.2128597,-0.03272458,0.9872168,0.1756515,-5.835094,-28.50851,-23.12377,1009.347
3.885644913,-0.1752708,0.4215988,-0.2142266,-0.03179248,0.989157,0.1727771,-5.835094,-28.50851,-23.12377,1009.347
3.890720844,-0.1751802,0.5997634,0.1518728,-0.03603487,0.982319,0.1785297,-5.835094,-28.50851,-23.12377,1009.347
3.895796776,-0.05136581,0.4804274,0.02978272,-0.03369331,0.9872209,0.1780484,-5.835094,-28.50851,-23.12377,1009.347
3.900872707,-0.05133354,0.4206554,-0.03124291,-0.03563152,0.9866979,0.1770947,-5.835094,-28.50851,-23.12377,1009.347
3.905948639,-0.1131243,0.4798987,0.09075222,-0.0317372,0.9867698,0.1790015,-5.835094,-28.50851,-23.12377,1009.347
3.911024570,-0.05123023,0.3606755,0.09073354,-0.03267577,0.9848003,0.1780446,-5.835094,-28.50851,-23.12377,1009.347
3.916100502,0.07252568,0.419863,0.02968879,-0.03418778,0.987177,0.1732603,-5.835094,-28.50851,-23.12377,1009.347
3.921176434,-0.1749479,0.1816435,0.09065789,-0.03552162,0.9808652,0.1785276,-5.835094,-28.50851,-23.12377,1009.349
3.926252365,0.134413,0.5978773,0.09060094,-0.03171445,0.9858179,0.1818744,-4.683533,-28.14134,-23.57558,1009.349
3.931328297,0.07250559,0.3001317,-0.03146981,-0.03267745,0.9853203,0.1823552,-4.683533,-28.14134,-23.57558,1009.349
3.936403751,-0.05122482,0.3594321,-0.03145004,-0.03561603,0.9857129,0.1756573,-4.683533,-28.14134,-23.57558,1009.349
3.941480160,-0.05121207,0.1212879,0.02955746,-0.03468157,0.9881915,0.179488,-4.683533,-28.14134,-23.57558,1009.349
3.946555614,-0.1748648,0.3591488,-0.09245577,-0.03568532,0.9901473,0.1823651,-4.683533,-28.14134,-23.57558,1009.349
3.951631546,-0.05107005,0.1805311,-0.03140994,-0.03861736,0.9900419,0.1742301,-4.683533,-28.14134,-23.57558,1009.349
3.956707478,-0.1747811,0.06140244,0.02959755,-0.0327132,0.9867408,0.177088,-4.683533,-28.14134,-23.57558,1009.349
3.961783409,0.07277612,0.06136387,-0.03144713,-0.03268634,0.9852799,0.177087,-4.683533,-28.14134,-23.57558,1009.349
3.966859341,0.1964736,0.1207208,-0.03142738,-0.03947047,0.9837114,0.1761438,-4.683533,-28.14134,-23.57558,1009.349
3.971936226,0.2582314,0.06115603,-0.1534023,-0.03217639,0.9843388,0.1804378,-5.063873,-28.50954,-22.66379,1009.349
3.977011204,-0.1130048,0.001628682,0.02967649,-0.03267577,0.9848003,0.1780446,-5.063873,-28.50954,-22.66379,1009.349
3.982087612,0.1344553,0.06111659,-0.03132991,-0.02993981,0.9945682,0.1761286,-5.063873,-28.50954,-22.66379,1009.349
3.984625340,0.01068938,0.06109739,-0.03132007,-0.03232695,0.9920976,0.1761326,-5.063873,-28.50954,-22.66379,1009.349
3.989701271,-0.05114033,-0.05791885,0.02972569,-0.03127842,0.9877069,0.1732539,-5.063873,-28.50954,-22.66379,1009.349
3.994777203,0.01071479,-0.05790116,0.02974535,-0.03181289,0.9906474,0.1766094,-5.063873,-28.50954,-22.66379,1009.349
3.999853134,0.1343929,-0.1768613,-0.03129942,-0.03456111,0.9818791,0.1818785,-5.063873,-28.50954,-22.66379,1009.349
4.004933357,0.07246606,-0.1767689,0.09079158,-0.03278074,0.9901277,0.1742167,-5.063873,-28.50954,-22.66379,1009.349
4.010004997,-0.1750075,-0.1171129,-0.03133679,-0.03476218,0.9925745,0.1794909,-5.063873,-28.50954,-22.66379,1009.349
4.015080929,-0.05121268,0.001882505,-0.0313171,-0.03275387,0.9886668,0.1742157,-5.063873,-28.50954,-22.66379,1009.349
4.020157337,-0.1130229,-0.236037,0.09069724,-0.03419761,0.9881877,0.1780502,-5.450535,-28.51151,-23.12099,1009.349
4.025233269,0.07265308,0.001973536,0.1517238,-0.03560215,0.9847206,0.173262,-5.450535,-28.51151,-23.12099,1009.349
4.030309200,0.07264631,0.001953609,-0.03141139,-0.03122145,0.9847997,0.1751677,-5.450535,-28.51151,-23.12099,1009.349
4.035385132,0.07262011,-0.1169507,-0.03137249,-0.03086618,0.9921263,0.1770871,-5.450535,-28.51151,-23.12099,1009.349
4.040461063,-0.05109093,-0.2359112,0.02963497,-0.03473193,0.9900734,0.1708687,-5.450535,-28.51151,-23.12099,1009.349
4.045536995,-0.2365861,-0.1168038,-0.2753799,-0.02938339,0.9906721,0.1751671,-5.450535,-28.51151,-23.12099,1009.351
4.050612926,-0.1127332,-0.05727887,-0.03121757,-0.03367951,0.9867559,0.1809216,-5.450535,-28.51151,-23.12099,1009.351
4.055688858,0.01104191,0.002246041,-0.1531926,-0.03387486,0.9969496,0.1766181,-5.450535,-28.51151,-23.12099,1009.351
4.060764790,-0.1745312,0.002244633,0.02986686,-0.03112213,0.9794465,0.175643,-5.450535,-28.51151,-23.12099,1009.351
4.065840721,0.01114462,0.06167609,-0.0921274,-0.02734667,0.9858382,0.1761172,-5.450535,-28.51151,-23.12099,1009.351
4.070916653,0.01113762,0.002241854,-0.03104344,-0.03121177,0.9848438,0.1809147,-5.450523,-28.89267,-23.11523,1009.351
4.075992584,-0.05071181,0.002277825,-0.09203085,-0.03282141,0.9920536,0.1713444,-5.450523,-28.89267,-23.11523,1009.351
4.081068516,0.07304378,-0.05717516,0.03005996,-0.02885311,0.9887681,0.1799539,-5.450523,-28.89267,-23.11523,1009.351
4.086144447,-0.236292,0.06181994,0.2130426,-0.03032929,0.9891968,0.1751683,-5.450523,-28.89267,-23.11523,1009.351
4.091220379,0.07314633,0.06181848,0.09087582,-0.03032768,0.9892042,0.1761262,-5.450523,-28.89267,-23.11523,1009.351
4.096296787,-0.05062334,-0.2951166,0.02985015,-0.03313447,0.9833359,0.1785236,-5.450523,-28.89267,-23.11523,1009.351
4.101372719,0.01125089,0.06190898,0.09079998,-0.02930043,0.9868276,0.1818694,-5.450523,-28.89267,-23.11523,1009.351
4.106448650,-0.05057918,0.002455909,-0.03123256,-0.03182434,0.9916508,0.1804415,-5.450523,-28.89267,-23.11523,1009.351
4.111529350,-0.1124093,-0.05707194,0.02977481,-0.03512964,0.9857201,0.1756561,-5.450523,-28.89267,-23.11523,1009.351
4.116600513,-0.05047678,0.002471529,0.09076302,-0.03078969,0.9882525,0.179958,-5.450523,-28.89267,-23.11523,1009.351
4.121676445,0.01137792,0.06190284,0.09078266,-0.0294046,0.9921588,0.1785205,-5.068081,-28.51949,-23.57262,1009.351
4.126752377,-0.1122946,0.002375022,0.09070647,-0.03324679,0.9891576,0.1756539,-5.068081,-28.51949,-23.57262,1009.349
4.131828308,-0.05040111,0.121314,-0.09233293,-0.03079622,0.9887505,0.1813951,-5.068081,-28.51949,-23.57262,1009.349
4.136904240,-0.1740543,0.002372071,-0.03126801,-0.03231718,0.9916142,0.1766112,-5.068081,-28.51949,-23.57262,1009.349
4.141980171,-0.173945,0.1807813,0.1517532,-0.03182912,0.9911013,0.1722994,-5.068081,-28.51949,-23.57262,1009.349
4.147056103,0.0116916,0.0616525,0.151677,-0.03325575,0.9896446,0.1756543,-5.068081,-28.51949,-23.57262,1009.349
4.149594307,-0.2357595,0.180611,0.09062248,-0.02936467,0.9897018,0.1756453,-5.068081,-28.51949,-23.57262,1009.349
4.154672146,-0.2356114,0.121046,0.1515725,-0.02884408,0.9877537,0.1746851,-5.068081,-28.51949,-23.57262,1009.349
4.159746170,-0.173621,0.2994367,0.09047033,-0.03269449,0.9857706,0.1775663,-5.068081,-28.51949,-23.57262,1009.349
4.164822578,-0.1735313,0.1803081,0.02942575,-0.03223416,0.9872423,0.178045,-5.068081,-28.51949,-23.57262,1009.349
4.169898033,-0.1115799,-0.0577048,0.02942643,-0.0297314,0.9833786,0.177558,-5.065966,-28.89567,-23.11245,1009.349
4.174973965,-0.1115292,-0.05770593,0.02938877,-0.0333006,0.9926069,0.1809244,-5.065966,-28.89567,-23.11245,1009.349
4.180049896,0.01224513,-0.05772575,0.02940864,-0.03173067,0.9862719,0.1775644,-5.065966,-28.89567,-23.11245,1009.349
4.185125828,0.01225687,0.001799449,-0.03165508,-0.03412508,0.9837681,0.173258,-5.065966,-28.89567,-23.11245,1009.349
4.190201759,-0.1114357,0.06130594,0.09037864,-0.03183242,0.991614,0.1756522,-5.065966,-28.89567,-23.11245,1009.349
4.195277691,0.0741616,-0.1172181,0.02933411,-0.03025845,0.9852973,0.1746868,-5.065966,-28.89567,-23.11245,1009.349
4.200353622,0.01221429,0.061285,-0.03169123,-0.03231557,0.9916216,0.177569,-5.065966,-28.89567,-23.11245,1009.349
4.205430031,0.1978116,0.1207167,0.1513303,-0.03511503,0.9852588,0.1790083,-5.065966,-28.89567,-23.11245,1009.349
4.210505962,0.07398307,0.1207157,-0.0317089,-0.03227483,0.9891682,0.1751728,-5.065966,-28.89567,-23.11245,1009.349
4.215581894,0.1357985,0.1206211,0.09030569,-0.03379837,0.9930757,0.179489,-5.068081,-28.51949,-23.57262,1009.349
4.220657826,0.07389015,0.001586184,-0.09275263,-0.03364692,0.9847933,0.1790046,-5.068081,-28.51949,-23.57262,1009.349
4.225733757,-0.1117224,0.06105543,0.02930031,-0.0294176,0.9926274,0.1761262,-5.068081,-28.51949,-23.57262,1009.349
4.230809688,0.1357175,0.06101707,0.09026965,-0.03076524,0.9867805,0.1785203,-5.068081,-28.51949,-23.57262,1009.349
4.235885620,0.07386753,0.06094136,-0.03180089,-0.0337055,0.9876932,0.176133,-5.068081,-28.51949,-23.57262,1009.349
4.240961551,-0.0498443,0.1798996,-0.03180008,-0.0326994,0.9862759,0.1799612,-5.068081,-28.51949,-23.57262,1009.349
4.246041298,-0.04983242,0.2392756,0.1511832,-0.02691403,0.9887673,0.1761181,-5.068081,-28.51949,-23.57262,1009.349
4.251113415,-0.1735054,0.001206879,0.09010042,-0.03412427,0.9837718,0.1737369,-5.068081,-28.51949,-23.57262,1009.347
4.256189346,0.1977359,0.1796356,0.1510316,-0.03275476,0.9891905,0.1790053,-5.068081,-28.51949,-23.57262,1009.347
4.261265278,-0.1116782,0.001055893,0.1509367,-0.03957141,0.9890572,0.1747106,-5.068081,-28.51949,-23.57262,1009.347
4.266341209,-0.1115692,0.06050678,-0.03212139,-0.0331866,0.9862651,0.1794834,-5.833002,-28.12238,-22.67512,1009.347
4.271418094,0.01222464,0.238973,0.1509004,-0.0341129,0.9832958,0.1751734,-5.833002,-28.12238,-22.67512,1009.347
4.276493072,0.1359213,0.0603934,0.0897795,-0.03372914,0.9891688,0.1780497,-5.833002,-28.12238,-22.67512,1009.347
4.281569481,0.01207327,0.1793146,0.02871618,-0.030727,0.9848436,0.1799558,-5.833002,-28.12238,-22.67512,1009.347
4.286645412,0.07390811,0.1197317,0.08962839,-0.02543865,0.9883348,0.1804247,-5.833002,-28.12238,-22.67512,1009.347
4.291721344,0.1975854,0.2981046,0.0286035,-0.03464825,0.98676,0.1833185,-5.833002,-28.12238,-22.67512,1009.349
4.296797275,-0.04992786,0.2979174,0.1505802,-0.03223174,0.9872534,0.1794818,-5.833002,-28.12238,-22.67512,1009.349
4.301873207,0.1356502,0.2977676,0.2115117,-0.03619608,0.9910847,0.1785355,-5.833002,-28.12238,-22.67512,1009.349
4.306949138,0.07374201,0.238129,-0.03257219,-0.0366059,0.9866763,0.1761391,-5.833002,-28.12238,-22.67512,1009.349
4.312025070,-0.04998917,0.2379794,0.02843602,-0.03406408,0.9808793,0.1775664,-5.450535,-28.51151,-23.12099,1009.349
4.314562797,0.197474,0.3568825,0.089434,-0.03322976,0.9887074,0.1804429,-5.450535,-28.51151,-23.12099,1009.349
4.319639206,0.01178377,0.297188,-0.03263602,-0.03308074,0.9804139,0.1785217,-5.450535,-28.51151,-23.12099,1009.349
4.324715137,0.01177637,0.3564342,-0.2155979,-0.03324855,0.990205,0.1852331,-5.450535,-28.51151,-23.12099,1009.349
4.329791069,-0.05011233,0.1182919,0.02852684,-0.02928818,0.985828,0.1785163,-5.450535,-28.51151,-23.12099,1009.349
4.334867000,0.01180045,0.2371581,-0.09344742,-0.03265132,0.9833283,0.1766068,-5.450535,-28.51151,-23.12099,1009.349
4.339942932,0.01177361,0.2370091,0.02856763,-0.03318983,0.9862504,0.1775677,-5.450535,-28.51151,-23.12099,1009.349
4.345018864,0.01176621,0.1773339,0.1505827,-0.03610975,0.9862001,0.1766166,-5.450535,-28.51151,-23.12099,1009.349
4.350094795,0.07365955,0.2367114,-0.1545082,-0.03265382,0.9838446,0.1804385,-5.450535,-28.51151,-23.12099,1009.349
4.355170727,0.01177085,0.2960517,0.08955906,-0.03226184,0.9886997,0.1775671,-5.450535,-28.51151,-23.12099,1009.349
4.360246658,0.01176345,0.1769439,-0.09349878,-0.03171357,0.9852942,0.1770848,-5.065977,-28.51452,-23.1182,1009.349
4.365322590,0.07361792,0.2362843,-0.09342088,-0.03373164,0.9896852,0.1818814,-5.065977,-28.51452,-23.1182,1009.349
4.370398521,-0.05013261,-0.001801215,-0.09345803,-0.03424239,0.9906226,0.1780518,-5.065977,-28.51452,-23.1182,1009.349
4.375474453,-0.1120018,0.1766293,-0.03241156,-0.03460009,0.983285,0.1746956,-5.065977,-28.51452,-23.1182,1009.349
4.380550384,-0.1737933,0.05757789,0.2115981,-0.03337144,0.9965065,0.1814059,-5.065977,-28.51452,-23.1182,1009.349
4.385626316,0.01188198,0.05757909,0.2115035,-0.03335104,0.9950162,0.1775735,-5.065977,-28.51452,-23.1182,1009.349
4.390702247,-0.1736916,-0.001927324,0.08941434,-0.03314666,0.9838081,0.1766083,-5.065977,-28.51452,-23.1182,1009.349
4.395778656,0.1356879,0.1169583,0.02837042,-0.03272216,0.9872279,0.1770883,-5.065977,-28.51452,-23.1182,1009.349
4.400854587,-0.1117865,0.2359001,0.02833342,-0.03339992,0.9979601,0.180449,-5.065977,-28.51452,-23.1182,1009.349
4.405930996,0.1975542,-0.1211443,0.1503103,-0.03362248,0.9833214,0.1775669,-5.065977,-28.51452,-23.1182,1009.349
4.411006451,-0.4210719,0.5332727,0.150235,-0.0327817,0.9911788,0.1842748,-5.452639,-28.51649,-23.5754,1009.349
4.416082382,-0.1734182,0.05717568,-0.03284177,-0.03369904,0.9877226,0.1799644,-5.452639,-28.51649,-23.5754,1009.351
4.421158314,-0.04962445,0.2356066,0.08917353,-0.03361675,0.9828197,0.1756509,-5.452639,-28.51649,-23.5754,1009.351
4.426234245,-0.2970407,-0.06194873,0.08911751,-0.03417074,0.9867267,0.1780492,-5.452639,-28.51649,-23.5754,1009.351
4.431310177,-0.1731498,0.1760272,0.02807378,-0.02983557,0.9887097,0.174209,-5.452639,-28.51649,-23.5754,1009.351
4.436386108,-0.04935619,0.1759166,-0.03295078,-0.03654732,0.9837764,0.1790107,-5.452639,-28.51649,-23.5754,1009.351
4.441464901,-0.04932519,0.1163172,-0.2159125,-0.03507429,0.9828056,0.1766121,-5.452639,-28.51649,-23.5754,1009.351
4.446537971,-0.1110783,0.1162441,-0.09383969,-0.03425869,0.991604,0.1790103,-5.452639,-28.51649,-23.5754,1009.351
4.451613903,0.01267631,0.1161898,-0.03279298,-0.03666367,0.9895799,0.1737464,-5.452639,-28.51649,-23.5754,1009.351
4.456689358,-0.04917408,0.05659048,-0.215774,-0.03323622,0.988678,0.1766115,-5.832991,-28.50354,-22.66936,1009.347
4.461765766,0.0746194,0.05659231,-0.032656,-0.03516055,0.9871627,0.1732625,-5.832991,-28.50354,-22.66936,1009.347
4.466841698,0.07457253,-0.1218727,-0.1546301,-0.03615864,0.9891441,0.179492,-5.832991,-28.50354,-22.66936,1009.347
4.471917152,0.01260552,-0.00289299,0.1504824,-0.03181781,0.9911527,0.1790044,-5.832991,-28.50354,-22.66936,1009.347
4.476993084,0.0125393,-0.002872482,0.08941929,-0.03186171,0.9930639,0.1742164,-5.832991,-28.50354,-22.66936,1009.347
4.479531288,0.01253536,-0.06236051,-0.03262264,-0.02649445,0.9926924,0.178993,-5.832991,-28.50354,-22.66936,1009.347
4.484607220,0.07435048,0.1756157,0.02840477,-0.03276613,0.9896665,0.1775689,-5.832991,-28.50354,-22.66936,1009.347
4.489683151,-0.04941996,0.1160164,-0.03261999,-0.03084093,0.990658,0.1761283,-5.832991,-28.50354,-22.66936,1009.347
4.494759083,0.01245352,-0.002996922,-0.2156202,-0.03179256,0.9896844,0.1780455,-5.832991,-28.50354,-22.66936,1009.35
4.499835014,-0.1112392,0.0564939,-0.09350929,-0.03033582,0.9896948,0.1766054,-5.832991,-28.50354,-22.66936,1009.35
4.504910946,-0.1730311,0.1159473,0.02852496,-0.03521193,0.9906231,0.1799697,-5.83721,-28.13233,-23.58394,1009.35
4.509986877,0.2600523,-0.0625923,-0.03251904,-0.02884819,0.9882627,0.177559,-5.83721,-28.13233,-23.58394,1009.35
4.515062809,0.07436164,0.1753467,0.02852747,-0.03124025,0.9862974,0.1799579,-5.83721,-28.13233,-23.58394,1009.35
4.520138740,0.01247249,-0.00319289,0.02850954,-0.02975496,0.9843268,0.1742061,-5.83721,-28.13233,-23.58394,1009.35
4.525214672,0.01246466,0.05629805,0.02849164,-0.03564208,0.9871776,0.1761372,-5.83721,-28.13233,-23.58394,1009.35
4.530290604,-0.04936616,-0.003226254,-0.09350176,-0.03281099,0.9926288,0.1828389,-5.83721,-28.13233,-23.58394,1009.35
4.535366535,0.01246841,0.1157349,-0.1544499,-0.03073999,0.9853122,0.1775615,-5.83721,-28.13233,-23.58394,1009.35
4.540442943,0.01251888,0.1751325,-0.03231991,-0.03510042,0.9847976,0.1823605,-5.83721,-28.13233,-23.58394,1009.35
4.545518875,-0.1112516,-0.003388267,0.02868815,-0.03133054,0.9906362,0.1742137,-5.83721,-28.13233,-23.58394,1009.35
4.550594807,-0.1730241,0.2940025,0.1507031,-0.03375109,0.9901245,0.1756557,-5.83721,-28.13233,-23.58394,1009.35
4.555670738,0.01261186,0.2342915,0.02865211,-0.03365015,0.9847786,0.1770889,-5.837198,-28.51349,-23.57819,1009.35
4.560746670,-0.04921905,0.2935771,0.1506288,-0.03029347,0.9872489,0.1751671,-5.837198,-28.51349,-23.57819,1009.35
4.565822601,-0.11105,-0.00395852,-0.03246743,-0.03177787,0.9886958,0.1761292,-5.837198,-28.51349,-23.57819,1009.35
4.570898533,-0.1109997,0.1743799,0.1504587,-0.03232944,0.9926139,0.1799643,-5.837198,-28.51349,-23.57819,1009.35
4.575976372,-0.04908751,0.2932856,0.08941478,-0.0323489,0.9930531,0.1737386,-5.837198,-28.51349,-23.57819,1009.344
4.581050396,-0.1727804,0.4715308,0.08935861,-0.03467996,0.9881989,0.1804459,-5.837198,-28.51349,-23.57819,1009.344
4.586126327,-0.1108294,0.1143571,0.02833389,-0.03669465,0.9915498,0.1766212,-5.837198,-28.51349,-23.57819,1009.344
4.591202259,-0.1726217,0.2333191,0.2113368,-0.03315407,0.9848298,0.1828349,-5.837198,-28.51349,-23.57819,1009.344
4.596278191,-0.1725326,0.2926615,0.02822165,-0.03366564,0.9857636,0.1785264,-5.837198,-28.51349,-23.57819,1009.344
4.601355553,-0.1105624,0.292515,0.2722316,-0.03035374,0.9906688,0.1766061,-5.450535,-28.51151,-23.12099,1009.344
4.606430054,-0.1104735,0.3518202,0.0280904,-0.03129398,0.9892193,0.1799598,-5.450535,-28.51151,-23.12099,1009.344
4.611505985,0.01330019,0.2326026,0.0890605,-0.03175269,0.9877548,0.1804389,-5.450535,-28.51151,-23.12099,1009.344
4.616582394,-0.2341167,0.2324752,0.2109609,-0.03332094,0.9935699,0.1794882,-5.450535,-28.51151,-23.12099,1009.35
4.621658325,-0.2339891,0.1728776,0.2718353,-0.03467819,0.9871515,0.1708667,-5.450535,-28.51151,-23.12099,1009.35
4.626734257,-0.295704,0.2322392,0.2716453,-0.03523961,0.9920803,0.1794917,-5.450535,-28.51151,-23.12099,1009.35
4.631811619,-0.3573995,0.2915823,0.2104678,-0.03807643,0.9871308,0.174706,-5.450535,-28.51151,-23.12099,1009.35
4.636886120,-0.2334901,-0.006008212,0.08830255,-0.03274491,0.9881797,0.1742154,-5.450535,-28.51151,-23.12099,1009.35
4.641962051,0.07590757,0.0534845,0.2102801,-0.03271232,0.9862171,0.1722984,-5.450535,-28.51151,-23.12099,1009.35
4.647037983,0.07589875,-0.06550828,0.08819164,-0.02876758,0.9838799,0.1775561,-5.450535,-28.51151,-23.12099,1009.35
4.649575710,0.0758749,0.231957,0.02715701,-0.0311661,0.9818851,0.1761236,-5.835083,-28.88967,-23.11802,1009.35
4.654652119,-0.1096806,0.2318486,-0.0338478,-0.03279374,0.9905964,0.1718224,-5.835083,-28.88967,-23.11802,1009.35
4.659728050,-0.1096506,0.05325487,0.1491942,-0.03463026,0.9852586,0.1780493,-5.835083,-28.88967,-23.11802,1009.35
4.664803982,-0.04770039,0.0532401,0.08811274,-0.03219584,0.984778,0.174212,-5.835083,-28.88967,-23.11802,1009.35
4.669879913,-0.04767042,0.1127143,0.0270888,-0.03618793,0.990594,0.1780562,-5.835083,-28.88967,-23.11802,1009.35
4.674955845,0.01420195,-0.06574857,0.08807869,-0.0361016,0.9857095,0.1761373,-5.835083,-28.88967,-23.11802,1009.35
4.680031776,-0.04768827,-0.1846478,-0.03399047,-0.03511995,0.9857641,0.1814032,-5.835083,-28.88967,-23.11802,1009.35
4.685107708,0.07608484,-0.006177094,0.08794889,-0.02976634,0.9848028,0.1727697,-5.835083,-28.88967,-23.11802,1009.35
4.690183639,0.13786,-0.006117146,-0.03408187,-0.03806182,0.9866695,0.1780581,-5.835083,-28.88967,-23.11802,1009.35
4.695259571,0.01404971,0.05341301,0.1489411,-0.03176238,0.9877108,0.1746918,-5.835083,-28.88967,-23.11802,1009.35
4.700335503,0.1377257,-0.1845576,-0.03415402,-0.02878227,0.9848685,0.1794724,-5.065977,-28.51452,-23.1182,1009.348
4.705414772,0.2613241,-0.3034008,-0.0341134,-0.0336892,0.9867118,0.1751745,-5.065977,-28.51452,-23.1182,1009.348
4.710487366,0.1993369,-0.06527318,-0.1560866,-0.03080929,0.9897465,0.1842693,-5.065977,-28.51452,-23.1182,1009.348
4.715563297,-0.04817746,-0.005817994,-0.0949625,-0.03220164,0.9858071,0.1813966,-5.065977,-28.51452,-23.1182,1009.348
4.720639229,-0.04816663,-0.06526589,-0.1559289,-0.03459282,0.983318,0.1790059,-5.065977,-28.51452,-23.1182,1009.348
4.725719452,-0.1099982,-0.1247138,-0.2778256,-0.03422367,0.9896523,0.17853,-5.065977,-28.51452,-23.1182,1009.348
4.730791569,0.1993219,-0.1246355,0.08833291,-0.03414879,0.9857711,0.1804432,-5.065977,-28.51452,-23.1182,1009.348
4.735869884,0.01364995,-0.3029866,-0.09470501,-0.03125485,0.9867586,0.1766057,-5.065977,-28.51452,-23.1182,1009.348
4.740943432,0.0136608,-0.302815,-0.09460717,-0.0347776,0.993032,0.1756599,-5.065977,-28.51452,-23.1182,1009.344
4.746019363,0.1373759,-0.005254805,-0.09456691,-0.02883519,0.9877941,0.1799533,-5.065977,-28.51452,-23.1182,1009.344
4.751095295,0.07540835,-0.06477781,-0.03351975,-0.02936305,0.9897091,0.1766032,-5.835094,-28.50851,-23.12377,1009.344
4.756171226,0.01347968,-0.005248189,-0.09448645,-0.02930036,0.9863002,0.1766009,-5.835094,-28.50851,-23.12377,1009.344
4.761247158,0.1372144,-0.005263578,-0.09442708,-0.03075056,0.9857918,0.176604,-5.835094,-28.50851,-23.12377,1009.344
4.766323090,0.01340444,-0.0647492,0.02762691,-0.03029185,0.9872563,0.1761249,-5.835094,-28.50851,-23.12377,1009.344
4.771399021,-0.04842697,0.1137209,-0.09434679,-0.03417397,0.986712,0.1761335,-5.835094,-28.50851,-23.12377,1009.344
4.776474953,-0.04837712,-0.005309723,-0.09428751,-0.03224965,0.9882273,0.1794825,-5.835094,-28.50851,-23.12377,1009.344
4.781550884,0.01351514,0.1731043,0.02776638,-0.0360886,0.9852409,0.1785316,-5.835094,-28.50851,-23.12377,1009.344
4.786626816,-0.04831634,0.173033,-0.2772473,-0.02696365,0.9911802,0.1732461,-5.835094,-28.50851,-23.12377,1009.344
4.791702747,0.01355644,0.1729056,0.08893003,-0.03224481,0.9882494,0.182356,-5.835094,-28.50851,-23.12377,1009.344
4.796781063,-0.1719794,0.0538191,0.08887416,-0.02739234,0.9887969,0.1809084,-5.450535,-28.51151,-23.12099,1009.344
4.801855087,-0.2955562,0.2322521,0.08881833,-0.02686521,0.9863507,0.1785111,-5.450535,-28.51151,-23.12099,1009.344
4.806931019,-0.4190942,0.4104982,0.08876253,-0.03312713,0.9828416,0.1775655,-5.450535,-28.51151,-23.12099,1009.344
4.812010288,-0.04769864,0.4697666,0.02768069,-0.02784451,0.9868344,0.1799504,-5.450535,-28.51151,-23.12099,1009.344
4.814544678,-0.4188548,0.4101301,-0.03333493,-0.03076928,0.9867621,0.1761257,-5.450535,-28.51151,-23.12099,1009.344
4.819620609,-0.1093018,0.4098912,0.1497068,-0.02733133,0.985908,0.1852168,-5.450535,-28.51151,-23.12099,1009.344
4.824696541,-0.2947993,0.4096524,0.02761805,-0.03463357,0.9857713,0.1814021,-5.450535,-28.51151,-23.12099,1009.344
4.829775810,-0.2327717,0.2309095,-0.09439397,-0.02790721,0.9902434,0.1799526,-5.450535,-28.51151,-23.12099,1009.344
4.834848404,0.0147637,0.5282465,0.2716302,-0.02783475,0.9863511,0.180429,-5.450535,-28.51151,-23.12099,1009.344
4.839924812,-0.04706857,0.5874036,0.1495223,-0.03567225,0.9891512,0.1794909,-5.450535,-28.51151,-23.12099,1009.344
4.845000744,0.01482286,0.4681501,0.1494092,-0.03133062,0.9911636,0.1794822,-5.452639,-28.51649,-23.5754,1009.344
4.850076675,-0.04702888,0.4083671,0.02730156,-0.03134192,0.9911121,0.1727772,-5.452639,-28.51649,-23.5754,1009.344
4.855152607,-0.2325849,0.3486403,0.4542753,-0.03215524,0.9833795,0.1823528,-5.452639,-28.51649,-23.5754,1009.344
4.860228538,-0.1087539,0.6458286,0.2100389,-0.0322382,0.987224,0.1756504,-5.452639,-28.51649,-23.5754,1009.344
4.865304470,-0.04688207,0.4074858,0.209907,-0.03653513,0.9833041,0.1809261,-5.452639,-28.51649,-23.5754,1009.344
4.870380402,0.1386941,0.4666814,0.08772296,-0.03515166,0.9872031,0.1785307,-5.452639,-28.51649,-23.5754,1009.344
4.875460148,0.07676454,0.2879214,0.02666093,-0.03571946,0.9915752,0.1780557,-5.452639,-28.51649,-23.5754,1009.344
4.880532265,0.07667745,0.3472295,0.02664418,-0.03409183,0.982864,0.1823569,-5.452639,-28.51649,-23.5754,1009.344
4.885608196,-0.1707404,0.2280522,0.2706743,-0.03232621,0.9926286,0.18188,-5.452639,-28.51649,-23.5754,1009.344
4.890684128,0.01489411,0.2873791,0.08750266,-0.03274814,0.9881651,0.1722997,-5.452639,-28.51649,-23.5754,1009.344
4.895760059,-0.04697711,0.4656654,0.0264791,-0.03464568,0.9857162,0.1742183,-6.219643,-28.88666,-23.12081,1009.344
4.900835991,0.2623423,0.2869434,0.148438,-0.04046769,0.9851691,0.1775838,-6.219643,-28.88666,-23.12081,1009.344
4.905911922,-0.1707973,0.2272929,-0.1566324,-0.0350613,0.9823369,0.1790064,-6.219643,-28.88666,-23.12081,1009.344
4.910987854,0.07667975,0.1676986,0.08745536,-0.03472063,0.9901249,0.1775736,-6.219643,-28.88666,-23.12081,1009.344
4.916064262,0.01482802,0.108123,0.2094526,-0.03408118,0.9818569,0.178046,-6.219643,-28.88666,-23.12081,1009.344
4.921140194,-0.1088856,0.2865032,0.02630026,-0.03266593,0.9837896,0.1732547,-6.219643,-28.88666,-23.12081,1009.344
4.926216125,0.07674897,0.04840482,-0.03470401,-0.03130294,0.9897063,0.1799601,-6.219643,-28.88666,-23.12081,1009.344
4.931292057,0.01481946,0.2862554,-0.1566577,-0.03035293,0.9906725,0.177085,-6.219643,-28.88666,-23.12081,1009.344
4.936367989,0.01482959,0.04815721,-0.03462213,-0.03805286,0.9861825,0.1780578,-6.219643,-28.88666,-23.12081,1009.344
4.941443920,0.07668213,0.1075972,0.02642571,-0.03091581,0.9945392,0.1742151,-5.065989,-28.13336,-23.12396,1009.344
4.946519852,0.01473323,0.1076044,0.2094298,-0.02993166,0.9940775,0.1756493,-5.065989,-28.13336,-23.12396,1009.343
4.951595783,0.01472397,-0.01147848,0.02633503,-0.03372914,0.9891688,0.1780497,-5.065989,-28.13336,-23.12396,1009.343
4.956671715,-0.04716658,0.1670142,-0.03468843,-0.0336892,0.9867118,0.1751745,-5.065989,-28.13336,-23.12396,1009.343
4.961747646,0.07654791,-0.070953,0.08730886,-0.02735651,0.9868489,0.1809071,-5.065989,-28.13336,-23.12396,1009.343
4.966823578,-0.04720447,-0.01145687,0.02626626,-0.0337552,0.9906335,0.1785296,-5.065989,-28.13336,-23.12396,1009.343
4.971899509,-0.04719425,-0.01148705,0.08723751,-0.031703,0.9848146,0.1780423,-5.065989,-28.13336,-23.12396,1009.343
4.976976395,0.01467783,-0.01151721,0.0872402,-0.03526405,0.9935523,0.1809295,-5.065989,-28.13336,-23.12396,1009.343
4.982051373,-0.1090357,0.04801634,0.0871854,-0.03080672,0.9887027,0.1751691,-5.065989,-28.13336,-23.12396,1009.343
4.984589577,-0.1708633,-0.01148768,-0.03485582,-0.03275468,0.9886631,0.1737368,-5.065989,-28.13336,-23.12396,1009.343
4.989665508,-0.0470711,0.04800847,0.08714157,-0.03707848,0.9862041,0.1790134,-5.065966,-28.89567,-23.11245,1009.343
4.994741440,-0.1088839,0.04801569,-0.03481201,-0.03175182,0.9872311,0.1756493,-5.065966,-28.89567,-23.11245,1009.343
4.999817371,0.01486931,-0.01148472,-0.03477097,-0.03275879,0.9891721,0.1766107,-5.065966,-28.89567,-23.11245,1009.343
5.004893303,-0.1088054,0.04801143,-0.09575605,-0.02781111,0.9848755,0.1785123,-5.065966,-28.89567,-23.11245,1009.343
5.009968758,-0.04691411,-0.07095922,0.08730569,-0.03328511,0.991622,0.1794869,-5.065966,-28.89567,-23.11245,1009.343
5.015044689,-0.0468652,-0.01146309,-0.1567768,-0.03181209,0.9906511,0.1770883,-5.065966,-28.89567,-23.11245,1009.343
5.020121098,-0.0468552,0.1670296,-0.09567142,-0.03025845,0.9852973,0.1746868,-5.065966,-28.89567,-23.11245,1009.343
5.025196552,-0.04682576,-0.2494605,-0.217606,-0.03327696,0.9911312,0.1790077,-5.065966,-28.89567,-23.11245,1009.343
5.030272484,0.01506552,0.04810352,0.08745031,-0.02786734,0.9883137,0.182346,-5.065966,-28.89567,-23.11245,1009.337
5.035348415,0.2624841,-0.01139695,0.0874337,-0.03218615,0.9848222,0.1799591,-5.065966,-28.89567,-23.11245,1009.337
5.040424347,-0.1087548,0.04808046,-0.09564198,-0.02988284,0.991661,0.1780424,-5.450535,-28.51151,-23.12099,1009.337
5.045500278,0.07684077,0.04812501,0.1484074,-0.02936628,0.9896945,0.1746875,-5.450535,-28.51151,-23.12099,1009.337
5.050576210,-0.04691179,-0.01139416,-0.1566437,-0.03277509,0.9901535,0.1775692,-5.450535,-28.51151,-23.12099,1009.337
5.055652142,-0.04690175,0.04806456,-0.09555756,-0.02692218,0.9892579,0.1765973,-5.450535,-28.51151,-23.12099,1009.337
5.060728550,0.076832,0.2265199,0.1484535,-0.02838618,0.9892145,0.1737271,-5.450535,-28.51151,-23.12099,1009.337
5.065804482,0.1386456,0.166926,-0.03467969,-0.03122557,0.9853087,0.1780415,-5.450535,-28.51151,-23.12099,1009.337
5.070880413,0.01481534,0.04784326,0.3313836,-0.03127035,0.9877436,0.1780431,-5.450535,-28.51151,-23.12099,1009.338
5.075956345,-0.04701696,0.1667724,-0.03478942,-0.03126712,0.9877583,0.1799588,-5.450535,-28.51151,-23.12099,1009.338
5.081032276,-0.17075,0.1071787,0.08722711,-0.03172091,0.9857885,0.178043,-5.450535,-28.51151,-23.12099,1009.338
5.086108208,0.01494284,0.2261079,-0.03482236,-0.03666448,0.9895762,0.1732675,-5.835106,-28.12736,-23.12953,1009.338
5.091184139,-0.04690897,0.2259285,0.08719419,-0.03035051,0.9906836,0.1785218,-5.835106,-28.12736,-23.12953,1009.338
5.096260071,0.01500179,0.1068274,0.08706275,-0.032292,0.9906733,0.1809208,-5.835106,-28.12736,-23.12953,1009.338
5.101336002,-0.1705544,-0.07170655,0.2700096,-0.03664253,0.9886206,0.1756614,-5.835106,-28.12736,-23.12953,1009.338
5.106416702,-0.04680122,0.344705,0.02585067,-0.03714198,0.9896094,0.1785367,-5.835106,-28.12736,-23.12953,1009.338
5.111487865,-0.1704761,0.1660777,0.0258536,-0.03074087,0.9858359,0.1823511,-5.835106,-28.12736,-23.12953,1009.343
5.116563797,-0.04666472,0.1064657,0.02583736,-0.03223739,0.9872277,0.1761294,-5.835106,-28.12736,-23.12953,1009.343
5.121639729,0.2007926,0.1064175,0.08680888,-0.03371607,0.9881728,0.1751755,-5.835106,-28.12736,-23.12953,1009.343
5.126715660,-0.108604,0.1063133,0.2088065,-0.0351093,0.9847572,0.1770923,-5.835106,-28.12736,-23.12953,1009.343
5.131791592,-0.04669332,-0.01271266,0.2086945,-0.03318652,0.9857377,0.1742149,-5.835106,-28.12736,-23.12953,1009.343
5.136868000,0.01513957,0.04674688,0.0256193,-0.03473692,0.9911062,0.1785321,-5.45265,-28.13533,-23.58116,1009.343
5.141949177,0.07705022,0.1061878,0.08659095,-0.03662704,0.9876356,0.174224,-5.45265,-28.13533,-23.58116,1009.343
5.147019863,0.01513996,-0.07230838,0.02556797,-0.03075217,0.9857845,0.1756461,-5.45265,-28.13533,-23.58116,1009.343
5.149557591,0.1388589,0.0466922,0.1475738,-0.03372091,0.9881508,0.1723019,-5.45265,-28.13533,-23.58116,1009.341
5.154638290,0.0150674,0.04664418,-0.03548219,-0.03671256,0.9925238,0.1766219,-5.45265,-28.13533,-23.58116,1009.341
5.159709454,0.01505794,-0.01287406,-0.09650515,-0.03168993,0.9838185,0.1751681,-5.45265,-28.13533,-23.58116,1009.341
5.164785385,0.01504848,0.04654821,0.1474873,-0.02985509,0.9896763,0.1732518,-5.45265,-28.13533,-23.58116,1009.341
5.169861317,0.07692032,0.04653766,0.08640691,-0.03523307,0.9915823,0.1780546,-5.45265,-28.13533,-23.58116,1009.341
5.174937725,0.1387144,0.04652711,-0.09657229,-0.0346677,0.9871992,0.1770928,-5.45265,-28.13533,-23.58116,1009.341
5.180013657,0.01492299,-0.01297237,-0.03550471,-0.03278236,0.9901204,0.1732588,-5.45265,-28.13533,-23.58116,1009.341
5.185089588,0.07679491,-0.01292684,-0.1575154,-0.03504096,0.981374,0.1804425,-5.448431,-28.50654,-22.66657,1009.341
5.190165520,-0.04693818,-0.07242633,-0.2184234,-0.03611547,0.9867018,0.1785326,-5.448431,-28.50654,-22.66657,1009.339
5.195241451,0.1386575,-0.1913587,-0.03528457,-0.02934683,0.9892552,0.1809132,-5.448431,-28.50654,-22.66657,1009.339
5.200317383,0.1386092,-0.1317869,-0.2182448,-0.03316861,0.9847637,0.1742143,-5.448431,-28.50654,-22.66657,1009.339
5.205393314,0.1385027,-0.07221521,-0.218146,-0.03520701,0.9901177,0.1775748,-5.448431,-28.50654,-22.66657,1009.339
