Time (s),Gyroscope X (deg/s),Gyroscope Y (deg/s),Gyroscope Z (deg/s),Accelerometer X (g),Accelerometer Y (g),Accelerometer Z (g),Magnetometer X (uT),Magnetometer Y (uT),Magnetometer Z (uT),Barometer (hPa)
0.000832558,-0.3387469,-0.6078206,0.2881496,0.03848706,0.9741795,-0.1880245,-8.482075,-36.0359,-8.548841,1008.264
0.005857468,-0.462267,-0.6078206,0.4102804,0.03996179,0.9722447,-0.1890078,-8.482075,-36.0359,-8.548841,1008.264
0.010881901,-0.2769868,-0.668021,0.4102804,0.03992192,0.9756886,-0.1932741,-8.482075,-36.0359,-8.548841,1008.264
0.015906334,-0.524027,-0.6078206,0.2881496,0.03748491,0.9771094,-0.1894233,-8.852083,-36.03988,-9.005614,1008.264
0.020931244,-0.524027,-0.5476203,0.4102804,0.04187646,0.9742283,-0.1918571,-8.852083,-36.03988,-9.005614,1008.264
0.025951862,-0.9563472,-0.7884218,0.1660188,0.04238926,0.971773,-0.1890153,-8.852083,-36.03988,-9.005614,1008.264
0.030976295,-0.9563472,-0.5476203,0.1660188,0.03995667,0.9727259,-0.1880439,-8.852083,-36.03988,-9.005614,1008.264
0.036001205,-0.9563472,-0.48742,0.349215,0.04380434,0.9751934,-0.1884936,-8.852083,-36.03988,-9.005614,1008.26
0.041025639,-0.9563472,-0.6078206,0.2270842,0.04135604,0.9775963,-0.1855882,-8.852083,-36.03988,-9.005614,1008.26
0.046050549,-1.018107,-0.6078206,0.2270842,0.0442988,0.9742377,-0.1909006,-8.852083,-36.03988,-9.005614,1008.26
0.051074982,-1.512188,-0.2466185,0.2881496,0.03994998,0.9732367,-0.1913897,-8.852083,-36.03988,-9.005614,1008.26
0.056099415,-1.450428,-0.4272196,0.2881496,0.04186587,0.9751972,-0.190887,-8.852083,-36.03988,-9.005614,1008.26
0.061124325,-1.326908,-0.4272196,0.1049534,0.04195217,0.9674165,-0.1943385,-8.171293,-36.34087,-8.093267,1008.26
0.066148758,-0.8945873,-0.4272196,0.2881496,0.04430765,0.9733018,-0.1966594,-8.171293,-36.34087,-8.093267,1008.26
0.071174145,-1.018107,-0.7282214,0.2270842,0.04045556,0.9713022,-0.1933303,-8.171293,-36.34087,-8.093267,1008.26
0.076199055,-1.079867,-0.5476203,0.4102804,0.04629552,0.9689052,-0.1938432,-8.171293,-36.34087,-8.093267,1008.26
0.081223488,-0.7093071,-0.7884218,0.1660188,0.04380311,0.9752166,-0.1918457,-8.171293,-36.34087,-8.093267,1008.264
0.086247921,-0.7093071,-0.8486221,0.2270842,0.03905952,0.966369,-0.1866877,-8.171293,-36.34087,-8.093267,1008.264
0.091272831,-0.462267,-0.7282214,0.2881496,0.04477191,0.975223,-0.1918462,-8.171293,-36.34087,-8.093267,1008.264
0.096297264,-0.524027,-0.8486221,0.2270842,0.03948286,0.9717538,-0.1890138,-8.171293,-36.34087,-8.093267,1008.264
0.101322174,-0.2769868,-0.6078206,0.1049534,0.04386736,0.9693901,-0.1957512,-8.171293,-36.34087,-8.093267,1008.264
0.106346607,-0.02994663,-0.9088224,0.1049534,0.04193151,0.9693443,-0.1909616,-8.171293,-36.34087,-8.093267,1008.264
0.111371040,0.2788536,-0.668021,-0.01717739,0.04474898,0.9771938,-0.1946944,-8.479418,-36.34426,-8.549699,1008.264
0.116395950,0.5258937,-0.3670192,0.1049534,0.04244256,0.9669219,-0.1929084,-8.479418,-36.34426,-8.549699,1008.264
0.121420383,0.3406136,-0.5476203,-0.01717739,0.03992385,0.9756523,-0.1880066,-8.479418,-36.34426,-8.549699,1008.26
0.126449585,0.5876538,-0.3068188,-0.07824278,0.04000166,0.9688009,-0.1847416,-8.479418,-36.34426,-8.549699,1008.26
0.131470680,0.2788536,-0.48742,-0.2003736,0.03997203,0.9712825,-0.1909357,-8.479418,-36.34426,-8.549699,1008.26
0.136494637,0.3406136,-0.06601742,-0.07824278,0.03845494,0.9770927,-0.1860718,-8.479418,-36.34426,-8.549699,1008.26
0.141519070,0.4023737,-0.1864181,-0.261439,0.04092634,0.9727157,-0.1856501,-8.479418,-36.34426,-8.549699,1008.26
0.146547794,0.4641337,-0.3068188,-0.2003736,0.03896052,0.9751582,-0.1880123,-8.479418,-36.34426,-8.549699,1008.26
0.151568413,0.4023737,-0.3670192,-0.1393082,0.0389831,0.973194,-0.1861218,-8.479418,-36.34426,-8.549699,1008.26
0.156597614,0.2788536,-0.48742,-0.261439,0.04183956,0.9776161,-0.1879827,-8.479418,-36.34426,-8.549699,1008.26
0.161618233,-0.02994663,-0.48742,-0.07824278,0.04335276,0.9722639,-0.1885307,-8.482075,-36.0359,-8.548841,1008.26
0.166642666,0.1553335,-0.6078206,-0.2003736,0.04190044,0.9722378,-0.1861357,-8.482075,-36.0359,-8.548841,1008.26
0.171667576,-0.09170669,-0.4272196,-0.261439,0.03898083,0.9732369,-0.1923469,-8.482075,-36.0359,-8.548841,1008.26
0.176692009,0.1553335,-0.1262178,-0.261439,0.04331132,0.9757375,-0.1971066,-8.482075,-36.0359,-8.548841,1008.26
0.181716919,0.09357345,-0.06601742,-0.1393082,0.03950544,0.9697896,-0.1871233,-8.482075,-36.0359,-8.548841,1008.26
0.186745167,0.03181341,-0.1262178,-0.2003736,0.0438442,0.9717496,-0.1842274,-8.482075,-36.0359,-8.548841,1008.26
0.191766262,0.03181341,-0.1262178,-0.2003736,0.04278665,0.9795701,-0.1874795,-8.482075,-36.0359,-8.548841,1008.26
0.196790695,-0.2152268,0.2951847,-0.3225044,0.04476377,0.9761457,-0.184172,-8.482075,-36.0359,-8.548841,1008.26
0.201815128,-0.4005069,0.2349844,-0.07824278,0.03992967,0.975158,-0.1870551,-8.482075,-36.0359,-8.548841,1008.266
0.206840038,-0.3387469,-0.005817059,-0.3225044,0.04092547,0.9727322,-0.1880444,-8.482075,-36.0359,-8.548841,1008.266
0.211864471,-0.4005069,0.0543833,-0.261439,0.04772085,0.9713634,-0.1952494,-8.84754,-36.71783,-8.552786,1008.266
0.216893196,-0.1534667,0.1145837,-0.2003736,0.04139595,0.9737671,-0.1961728,-8.84754,-36.71783,-8.552786,1008.266
0.221913815,0.03181341,-0.005817059,-0.2003736,0.04630135,0.9684108,-0.1928917,-8.84754,-36.71783,-8.552786,1008.266
0.226934433,0.1553335,0.174784,-0.3225044,0.04237971,0.972722,-0.185172,-8.84754,-36.71783,-8.552786,1008.266
0.231960296,0.3406136,-0.06601742,-0.261439,0.03893689,0.9771422,-0.1927761,-8.84754,-36.71783,-8.552786,1008.266
0.236983776,0.09357345,-0.06601742,-0.3835697,0.04135871,0.9771615,-0.1932561,-8.84754,-36.71783,-8.552786,1008.266
0.242009163,-0.02994663,0.2349844,-0.3835697,0.03947192,0.9727292,-0.1890014,-8.84754,-36.71783,-8.552786,1008.263
0.247033596,-0.1534667,0.0543833,-0.3835697,0.04380346,0.97521,-0.1908879,-8.84754,-36.71783,-8.552786,1008.263
0.252058506,0.03181341,-0.1864181,-0.4446352,0.03997203,0.9712825,-0.1909357,-8.84754,-36.71783,-8.552786,1008.263
0.257082939,-0.09170669,-0.1262178,-0.3225044,0.04239083,0.9717433,-0.1847056,-8.852083,-36.03988,-9.005614,1008.263
0.262107372,0.2170936,0.1145837,-0.5057005,0.04187186,0.9746996,-0.1894566,-8.852083,-36.03988,-9.005614,1008.263
0.267132282,0.03181341,0.1145837,-0.3225044,0.04332453,0.974719,-0.1908939,-8.852083,-36.03988,-9.005614,1008.263
0.272156715,-0.3387469,0.174784,-0.3835697,0.04331145,0.9761196,-0.1817769,-8.852083,-36.03988,-9.005614,1008.263
0.277181625,-0.2152268,0.2349844,-0.5057005,0.04091965,0.9732265,-0.1889959,-8.852083,-36.03988,-9.005614,1008.263
0.282206058,-0.2769868,-0.005817059,-0.4446352,0.04714817,0.9795626,-0.1822142,-8.852083,-36.03988,-9.005614,1008.263
0.287230491,-0.5857871,0.174784,-0.3835697,0.04331481,0.9756714,-0.1875295,-8.852083,-36.03988,-9.005614,1008.263
0.292255401,-0.4005069,0.3553851,-0.3835697,0.04382814,0.9732062,-0.1832511,-8.852083,-36.03988,-9.005614,1008.263
0.297279835,-0.5857871,0.2951847,-0.261439,0.04528628,0.9727379,-0.1846946,-8.852083,-36.03988,-9.005614,1008.263
0.302304745,-0.5857871,0.4155855,-0.261439,0.04525206,0.9756908,-0.1884882,-8.852083,-36.03988,-9.005614,1008.263
0.307329178,-0.524027,0.2951847,-0.261439,0.04331766,0.9752332,-0.1947186,-8.850727,-36.34781,-8.551755,1008.263
0.312354088,-0.6475471,0.4155855,-0.261439,0.04530799,0.9707903,-0.1851983,-8.850727,-36.34781,-8.551755,1008.263
0.317378521,-0.2769868,0.3553851,-0.261439,0.04192604,0.9698321,-0.1909554,-8.850727,-36.34781,-8.551755,1008.263
0.322402954,-0.4005069,0.4757858,-0.1393082,0.0399814,0.9703367,-0.1952579,-8.850727,-36.34781,-8.551755,1008.268
0.327428341,-0.1534667,0.2951847,-0.2003736,0.04190364,0.9717929,-0.1923671,-8.850727,-36.34781,-8.551755,1008.268
0.332453251,-0.09170669,0.1145837,-0.2003736,0.04235306,0.9751475,-0.1832255,-8.850727,-36.34781,-8.551755,1008.268
0.337477684,-0.3387469,0.4757858,0.1049534,0.04377558,0.9776585,-0.1922934,-8.850727,-36.34781,-8.551755,1008.268
0.342502117,-0.4005069,0.4155855,-0.07824278,0.03850172,0.9727492,-0.1928318,-8.850727,-36.34781,-8.551755,1008.268
0.347527027,-0.3387469,0.5359862,-0.01717739,0.04477366,0.97519,-0.1870576,-8.850727,-36.34781,-8.551755,1008.268
0.352551460,-0.3387469,0.6563869,-0.07824278,0.03998984,0.9697928,-0.1871235,-8.850727,-36.34781,-8.551755,1008.268
0.357576370,-0.3387469,0.3553851,-0.07824278,0.04091243,0.9737474,-0.1937783,-8.480774,-36.03633,-9.003559,1008.268
0.362600803,-0.3387469,0.4155855,-0.1393082,0.03849661,0.9732304,-0.1918678,-8.480774,-36.03633,-9.003559,1008.269
0.367625713,-0.524027,0.2951847,-0.01717739,0.03847507,0.9751748,-0.1908852,-8.480774,-36.03633,-9.003559,1008.269
0.372650146,-0.7093071,0.174784,-0.01717739,0.04238786,0.9717994,-0.1928462,-8.480774,-36.03633,-9.003559,1008.269
0.377677917,-0.7093071,0.1145837,-0.07824278,0.03897746,0.9736851,-0.1865944,-8.480774,-36.03633,-9.003559,1008.269
0.382699489,-0.7710672,-0.2466185,-0.2003736,0.04286114,0.9727814,-0.1933128,-8.480774,-36.03633,-9.003559,1008.269
0.385211944,-0.524027,-0.1864181,-0.07824278,0.04286184,0.9727681,-0.1913974,-8.480774,-36.03633,-9.003559,1008.269
0.390236854,-0.5857871,-0.2466185,-0.07824278,0.04484215,0.968899,-0.1943213,-8.480774,-36.03633,-9.003559,1008.269
0.395261288,-0.02994663,-0.1864181,0.04388801,0.04481568,0.9713211,-0.1918959,-8.480774,-36.03633,-9.003559,1008.269
0.400286198,-0.02994663,-0.1262178,0.1049534,0.04778207,0.9659784,-0.1924446,-8.480774,-36.03633,-9.003559,1008.269
0.405310631,0.5258937,-0.1864181,0.04388801,0.0390438,0.967819,-0.1847536,-8.482075,-36.0359,-8.548841,1008.265
0.410335064,0.2170936,-0.1864181,0.1660188,0.04626445,0.9717986,-0.1890173,-8.482075,-36.0359,-8.548841,1008.265
0.415359974,0.3406136,-0.4272196,0.04388801,0.04427675,0.9761919,-0.1913546,-8.482075,-36.0359,-8.548841,1008.265
0.468118667,0.09357345,-0.1864181,-0.01717739,0.04477703,0.9747418,-0.1928101,-8.476231,-36.71428,-8.55073,1008.271
0.473139286,0.03181341,-0.1262178,-0.01717739,0.04186215,0.9756519,-0.1860921,-8.476231,-36.71428,-8.55073,1008.271
0.475652218,-0.2152268,-0.1864181,-0.2003736,0.04424672,0.9790655,-0.1836555,-8.476231,-36.71428,-8.55073,1008.271
0.480676651,0.03181341,-0.1262178,-0.01717739,0.04238396,0.9722574,-0.1885302,-8.476231,-36.71428,-8.55073,1008.271
0.485701561,-0.02994663,-0.1262178,-0.07824278,0.04430992,0.9732589,-0.1904342,-8.476231,-36.71428,-8.55073,1008.271
0.490725994,-0.09170669,0.174784,-0.2003736,0.04333547,0.9737436,-0.1909064,-8.476231,-36.71428,-8.55073,1008.271
0.495750427,-0.02994663,0.2349844,-0.1393082,0.04527906,0.9732587,-0.189477,-8.476231,-36.71428,-8.55073,1008.271
0.500775337,-0.09170669,0.2951847,-0.1393082,0.04284136,0.9746927,-0.1875417,-8.476231,-36.71428,-8.55073,1008.271
0.505799770,-0.1534667,0.4757858,-0.1393082,0.04625933,0.9722798,-0.1880533,-8.849426,-36.34823,-9.006474,1008.271
0.510824680,-0.1534667,0.4757858,-0.2003736,0.04476662,0.9757074,-0.1913611,-8.849426,-36.34823,-9.006474,1008.271
0.515849113,-0.4005069,0.5359862,-0.1393082,0.04089829,0.9751676,-0.1875345,-8.849426,-36.34823,-9.006474,1008.271
0.520874023,-0.2152268,0.5961865,-0.01717739,0.03899369,0.9722252,-0.1870919,-8.849426,-36.34823,-9.006474,1008.271
0.525898456,-0.09170669,0.7165872,-0.01717739,0.04090254,0.974703,-0.1908927,-8.849426,-36.34823,-9.006474,1008.271
0.530922890,-0.2152268,0.5359862,-0.01717739,0.04385182,0.9708368,-0.1933382,-8.849426,-36.34823,-9.006474,1008.271
0.535947800,-0.09170669,0.3553851,0.1660188,0.03758676,0.9678819,-0.1952878,-8.849426,-36.34823,-9.006474,1008.271
0.540972233,-0.02994663,0.4757858,0.1049534,0.037021,0.9751817,-0.1932788,-8.849426,-36.34823,-9.006474,1008.271
0.545997620,-0.02994663,0.3553851,-0.1393082,0.03998792,0.9698291,-0.1923909,-8.849426,-36.34823,-9.006474,1008.271
0.551022053,-0.09170669,0.2951847,-0.01717739,0.03752198,0.9737183,-0.1928189,-8.849426,-36.34823,-9.006474,1008.271
0.556046963,-0.1534667,0.174784,-0.07824278,0.04140387,0.9732331,-0.189475,-9.218851,-36.72138,-8.554841,1008.271
0.561071396,-0.2769868,0.0543833,-0.2003736,0.04426668,0.9771509,-0.1889479,-9.218851,-36.72138,-8.554841,1008.271
0.566096306,-0.09170669,0.174784,-0.2003736,0.04570963,0.9781228,-0.1870207,-9.218851,-36.72138,-8.554841,1008.273
0.571120739,-0.02994663,0.1145837,-0.3835697,0.04770474,0.9732054,-0.1794222,-9.218851,-36.72138,-8.554841,1008.273
0.576145649,-0.02994663,0.5359862,-0.2003736,0.05207229,0.9723148,-0.1875774,-9.218851,-36.72138,-8.554841,1008.273
0.581170082,0.1553335,0.8971884,-0.2003736,0.04965787,0.9717715,-0.1818361,-9.218851,-36.72138,-8.554841,1008.273
0.586194515,0.2788536,1.017589,-0.07824278,0.05203469,0.9757158,-0.1856184,-9.218851,-36.72138,-8.554841,1008.273
0.591219425,-0.1534667,1.017589,0.1049534,0.04481725,0.9712914,-0.1875862,-9.218851,-36.72138,-8.554841,1008.273
0.596243858,-0.1534667,1.258391,0.1660188,0.04237936,0.9727286,-0.1861297,-9.218851,-36.72138,-8.554841,1008.273
0.601268768,0.03181341,1.13799,0.1660188,0.03659485,0.9698496,-0.1986144,-8.850727,-36.34781,-8.551755,1008.273
0.606298447,0.2170936,0.7767876,0.1049534,0.03471458,0.9649099,-0.1914927,-8.850727,-36.34781,-8.551755,1008.273
0.611317634,0.3406136,0.2951847,0.2270842,0.03222979,0.9703086,-0.198606,-8.850727,-36.34781,-8.551755,1008.273
0.616342544,0.6494138,0.2349844,0.1660188,0.03419614,0.9678563,-0.1948072,-8.850727,-36.34781,-8.551755,1008.273
0.621366978,0.834694,-0.1262178,-0.01717739,0.03123009,0.9731923,-0.1933007,-8.850727,-36.34781,-8.551755,1008.273
0.626391888,0.7111739,-0.1262178,-0.1393082,0.03704253,0.9732373,-0.1942614,-8.850727,-36.34781,-8.551755,1008.273
0.631417274,0.6494138,-0.06601742,-0.2003736,0.04136785,0.9766044,-0.1832063,-8.850727,-36.34781,-8.551755,1008.273
0.636441708,0.3406136,-0.005817059,-0.5057005,0.03945266,0.9746307,-0.1817936,-8.850727,-36.34781,-8.551755,1008.273
0.641466141,0.09357345,0.1145837,-0.3225044,0.04719443,0.9752291,-0.1904108,-8.850727,-36.34781,-8.551755,1008.273
0.646491051,0.09357345,0.2951847,-0.566766,0.04144462,0.9697728,-0.1828145,-8.850727,-36.34781,-8.551755,1008.273
0.651515484,0.1553335,0.4757858,-0.5057005,0.04430073,0.9742014,-0.1856332,-8.478117,-36.34468,-9.004417,1008.273
0.656540394,0.3406136,0.5961865,-0.566766,0.0443279,0.971766,-0.1861431,-8.478117,-36.34468,-9.004417,1008.273
0.661564827,0.5876538,0.7165872,-0.3225044,0.04380963,0.974709,-0.1889787,-8.478117,-36.34468,-9.004417,1008.273
0.666589260,0.958214,0.5961865,-0.4446352,0.04629197,0.9693566,-0.1885695,-8.478117,-36.34468,-9.004417,1008.273
0.671610355,0.772934,0.6563869,-0.4446352,0.0452967,0.9717724,-0.1861436,-8.478117,-36.34468,-9.004417,1008.273
0.676634788,0.7111739,0.7165872,-0.5057005,0.03943875,0.9756623,-0.1899218,-8.478117,-36.34468,-9.004417,1008.273
0.681659222,0.5876538,0.5961865,-0.3225044,0.03844982,0.9775738,-0.1851078,-8.478117,-36.34468,-9.004417,1008.273
0.686684132,0.3406136,0.5961865,-0.3225044,0.03748899,0.9766481,-0.1932604,-8.478117,-36.34468,-9.004417,1008.273
0.691708565,0.3406136,0.4155855,-0.3835697,0.04037897,0.9781305,-0.1932432,-8.478117,-36.34468,-9.004417,1008.273
0.696733475,0.4023737,0.3553851,-0.5057005,0.03947512,0.9722844,-0.1952328,-8.478117,-36.34468,-9.004417,1008.273
0.701757908,0.4641337,0.2951847,-0.566766,0.0365934,0.9702615,-0.1875944,-8.482075,-36.0359,-8.548841,1008.273
0.706782341,0.4641337,0.1145837,-0.566766,0.03707128,0.9707723,-0.1904616,-8.482075,-36.0359,-8.548841,1008.273
0.711807251,0.6494138,0.0543833,-0.3225044,0.03799701,0.9746673,-0.1884969,-8.482075,-36.0359,-8.548841,1008.273
0.716832638,0.834694,-0.06601742,-0.566766,0.0389487,0.9761502,-0.1903942,-8.482075,-36.0359,-8.548841,1008.273
0.721857071,0.4641337,0.0543833,-0.5057005,0.03995068,0.9732235,-0.1894743,-8.482075,-36.0359,-8.548841,1008.273
0.726881981,0.3406136,0.174784,-0.6888968,0.04670421,0.9757202,-0.1913621,-8.482075,-36.0359,-8.548841,1008.273
0.731906414,0.1553335,0.2349844,-0.6888968,0.04479786,0.9728107,-0.1957081,-8.482075,-36.0359,-8.548841,1008.273
0.736930847,0.09357345,0.3553851,-0.6888968,0.04287313,0.9717861,-0.1904521,-8.482075,-36.0359,-8.548841,1008.273
0.741955757,0.1553335,0.174784,-0.6888968,0.04578022,0.9717921,-0.1885381,-8.482075,-36.0359,-8.548841,1008.273
0.746981621,0.2788536,0.4155855,-0.4446352,0.04623587,0.9742604,-0.1923382,-8.482075,-36.0359,-8.548841,1008.273
0.752005100,0.4023737,0.5359862,-0.4446352,0.0414353,0.9703331,-0.1933432,-8.479418,-36.34426,-8.549699,1008.273
0.757029533,0.7111739,0.3553851,-0.4446352,0.04288902,0.9703328,-0.1919074,-8.479418,-36.34426,-8.549699,1008.273
0.762053966,0.5876538,0.2349844,-0.3835697,0.04042589,0.9741692,-0.1846735,-8.479418,-36.34426,-8.549699,1008.273
0.767078876,0.3406136,0.174784,-0.3835697,0.04527342,0.9737498,-0.1899496,-8.479418,-36.34426,-8.549699,1008.273
0.772104263,0.2788536,0.4155855,-0.3835697,0.04334077,0.9732591,-0.1913914,-8.479418,-36.34426,-8.549699,1008.273
0.777128696,0.03181341,0.4155855,-0.5057005,0.0442757,0.9762118,-0.1942278,-8.479418,-36.34426,-8.549699,1008.273
0.782152653,0.2788536,0.3553851,-0.3835697,0.04333635,0.9737271,-0.1885121,-8.479418,-36.34426,-8.549699,1008.273
0.787177563,0.3406136,0.2349844,-0.4446352,0.04283908,0.9747356,-0.1937668,-8.479418,-36.34426,-8.549699,1008.273
0.792201996,0.5258937,0.1145837,-0.3225044,0.0419197,0.9703363,-0.1933434,-8.479418,-36.34426,-8.549699,1008.273
0.797226429,0.5258937,0.2349844,-0.566766,0.04227845,0.9815542,-0.1927218,-8.479418,-36.34426,-8.549699,1008.273
0.802256584,0.5876538,0.3553851,-0.3225044,0.04577651,0.9722468,-0.1837433,-8.47493,-36.71471,-9.005448,1008.273
0.807276726,0.3406136,0.4757858,-0.3225044,0.04040842,0.9756522,-0.187528,-8.47493,-36.71471,-9.005448,1008.273
0.812301159,0.03181341,0.836988,-0.3225044,0.04280888,0.9776126,-0.1865466,-8.47493,-36.71471,-9.005448,1008.273
0.817325592,-0.1534667,0.7165872,-0.4446352,0.03996354,0.9722118,-0.1842193,-8.47493,-36.71471,-9.005448,1008.273
0.822350502,-0.462267,0.5961865,-0.2003736,0.04580281,0.969828,-0.1866476,-8.47493,-36.71471,-9.005448,1008.273
0.827374935,-0.1534667,0.5359862,-0.1393082,0.04573186,0.9761652,-0.1860879,-8.47493,-36.71471,-9.005448,1008.273
0.832399845,-0.09170669,0.5359862,-0.01717739,0.03899584,0.9718001,-0.1961965,-8.47493,-36.71471,-9.005448,1008.273
0.837424278,0.2170936,0.4155855,-0.07824278,0.03904065,0.9678784,-0.1933731,-8.47493,-36.71471,-9.005448,1008.273
0.842449188,0.09357345,0.2349844,-0.1393082,0.04094014,0.971302,-0.1928517,-8.47493,-36.71471,-9.005448,1008.273
0.847473621,0.03181341,0.3553851,0.1049534,0.03946295,0.973283,-0.1985724,-8.849426,-36.34823,-9.006474,1008.273
0.852498054,-0.2152268,0.1145837,-0.07824278,0.04289711,0.9697955,-0.1847307,-8.849426,-36.34823,-9.006474,1008.273
0.857522964,-0.02994663,-0.005817059,0.1660188,0.03848794,0.974163,-0.1856302,-8.849426,-36.34823,-9.006474,1008.273
0.862547398,-0.02994663,0.0543833,-0.1393082,0.04724913,0.9703517,-0.190473,-8.849426,-36.34823,-9.006474,1008.273
0.867572308,0.03181341,0.1145837,-0.07824278,0.03896477,0.9746935,-0.1913706,-8.849426,-36.34823,-9.006474,1008.273
0.872593403,-0.2769868,0.1145837,-0.07824278,0.04327105,0.9795733,-0.1874797,-8.849426,-36.34823,-9.006474,1008.273
0.877617359,-0.09170669,0.0543833,-0.261439,0.04871275,0.9693957,-0.1919227,-8.849426,-36.34823,-9.006474,1008.273
0.882642269,-0.2769868,0.2349844,-0.01717739,0.04233792,0.9762022,-0.1947057,-8.849426,-36.34823,-9.006474,1008.273
0.887667179,0.09357345,0.2951847,-0.1393082,0.04338081,0.969812,-0.1866464,-8.849426,-36.34823,-9.006474,1008.273
0.890179157,-0.02994663,0.2951847,-0.07824278,0.04967376,0.9703182,-0.1832913,-8.849426,-36.34823,-9.006474,1008.273
0.895204067,-0.02994663,0.3553851,-0.2003736,0.04477314,0.9751999,-0.1884941,-8.849426,-36.34823,-9.006474,1008.273
0.900228500,-0.02994663,0.2951847,-0.07824278,0.04476766,0.9756876,-0.1884879,-8.482075,-36.0359,-8.548841,1008.273
0.905258656,-0.09170669,0.2951847,-0.1393082,0.04428431,0.9756646,-0.1856145,-8.482075,-36.0359,-8.548841,1008.273
0.910277843,-0.02994663,0.1145837,-0.07824278,0.04046138,0.9708079,-0.1923788,-8.482075,-36.0359,-8.548841,1008.273
0.915302277,-0.2152268,0.174784,-0.2003736,0.04046842,0.9702904,-0.1880753,-8.482075,-36.0359,-8.548841,1008.273
0.920327187,-0.1534667,0.174784,0.04388801,0.03702822,0.9746609,-0.1884964,-8.482075,-36.0359,-8.548841,1008.273
0.925354481,-0.1534667,0.1145837,-0.1393082,0.0438144,0.9742345,-0.1909004,-8.482075,-36.0359,-8.548841,1008.273
0.930377007,-0.02994663,0.3553851,-0.1393082,0.04095265,0.9702969,-0.1885543,-8.482075,-36.0359,-8.548841,1008.273
0.935401916,-0.02994663,0.0543833,-0.2003736,0.04089707,0.9751908,-0.1908865,-8.482075,-36.0359,-8.548841,1008.271
0.940426350,0.1553335,0.4155855,-0.07824278,0.03803461,0.9712664,-0.1904559,-8.482075,-36.0359,-8.548841,1008.271
0.945450783,0.03181341,0.2349844,-0.07824278,0.04000521,0.9683494,-0.1900153,-8.476231,-36.71428,-8.55073,1008.271
0.950475693,-0.1534667,-0.005817059,-0.01717739,0.03946185,0.9736883,-0.1865947,-8.476231,-36.71428,-8.55073,1008.271
0.955500126,-0.09170669,0.1145837,0.04388801,0.04094665,0.9707945,-0.1899847,-8.476231,-36.71428,-8.55073,1008.271
0.960525036,0.09357345,0.0543833,-0.261439,0.04046703,0.9703168,-0.1919061,-8.476231,-36.71428,-8.55073,1008.271
0.965549469,0.2170936,-0.005817059,-0.4446352,0.04088753,0.9761398,-0.1870432,-8.476231,-36.71428,-8.55073,1008.271
0.970573902,0.03181341,-0.06601742,-0.3225044,0.04089475,0.9756191,-0.1822608,-8.476231,-36.71428,-8.55073,1008.271
0.975598812,0.3406136,0.0543833,-0.3225044,0.04768925,0.9742667,-0.1918601,-8.476231,-36.71428,-8.55073,1008.271
0.980623245,0.09357345,0.1145837,-0.1393082,0.04435101,0.9697919,-0.182816,-8.476231,-36.71428,-8.55073,1008.271
0.985648155,-0.02994663,0.174784,-0.2003736,0.04385816,0.9703326,-0.1909501,-8.476231,-36.71428,-8.55073,1008.271
0.990672588,0.03181341,0.2951847,-0.07824278,0.03896564,0.974677,-0.1889763,-8.476231,-36.71428,-8.55073,1008.271
0.995697498,-0.02994663,0.2349844,0.04388801,0.03848938,0.9737512,-0.1966502,-8.853384,-36.03946,-8.550896,1008.271
1.000721931,0.2170936,0.174784,-0.07824278,0.04627452,0.9708396,-0.191424,-8.853384,-36.03946,-8.550896,1008.271
1.005746365,0.4023737,0.4757858,-0.1393082,0.04529495,0.9718054,-0.1909322,-8.853384,-36.03946,-8.550896,1008.271
1.010771275,0.09357345,0.3553851,-0.1393082,0.03899212,0.9722549,-0.1914017,-8.853384,-36.03946,-8.550896,1008.271
1.015795708,0.2170936,0.2951847,-0.01717739,0.04138147,0.975194,-0.1908867,-8.853384,-36.03946,-8.550896,1008.271
1.020821095,0.4023737,0.3553851,0.04388801,0.04573064,0.9761884,-0.1894399,-8.853384,-36.03946,-8.550896,1008.271
1.025845528,0.1553335,0.2349844,0.04388801,0.03509539,0.9741736,-0.1904171,-8.853384,-36.03946,-8.550896,1008.271
1.030870438,0.1553335,0.3553851,0.1049534,0.04087146,0.9775964,-0.1860668,-8.853384,-36.03946,-8.550896,1008.271
1.035894871,0.09357345,0.174784,0.1049534,0.04142506,0.9712954,-0.1914153,-8.853384,-36.03946,-8.550896,1008.271
1.040919781,0.03181341,0.2951847,-0.01717739,0.04672661,0.9737594,-0.1899503,-8.853384,-36.03946,-8.550896,1008.271
1.045944214,0.03181341,0.174784,-0.07824278,0.04332931,0.9742445,-0.1928156,-8.479418,-36.34426,-8.549699,1008.271
1.050969124,0.09357345,0.3553851,0.1660188,0.03946238,0.9736784,-0.1851581,-8.479418,-36.34426,-8.549699,1008.271
1.055993557,-0.02994663,0.174784,-0.1393082,0.04287348,0.9717795,-0.1894944,-8.479418,-36.34426,-8.549699,1008.271
1.061017990,0.09357345,-0.06601742,-0.1393082,0.03559091,0.973198,-0.1899509,-8.479418,-36.34426,-8.549699,1008.271
1.066042900,0.03181341,0.1145837,0.04388801,0.04435031,0.9698051,-0.1847314,-8.479418,-36.34426,-8.549699,1008.271
1.071063519,-0.09170669,0.2349844,0.04388801,0.04136029,0.9771317,-0.1889464,-8.479418,-36.34426,-8.549699,1008.271
1.076087952,-0.3387469,0.174784,0.1049534,0.04236173,0.974215,-0.1894631,-8.479418,-36.34426,-8.549699,1008.271
1.081112862,-0.462267,0.174784,-0.01717739,0.04625246,0.9727939,-0.191878,-8.479418,-36.34426,-8.549699,1008.271
1.086137295,-0.1534667,0.3553851,0.2270842,0.04236825,0.9737075,-0.1865961,-8.479418,-36.34426,-8.549699,1008.271
1.091161728,-0.2152268,0.174784,0.2270842,0.04336335,0.971295,-0.1895009,-8.479418,-36.34426,-8.549699,1008.271
1.096188545,0.03181341,-0.005817059,0.04388801,0.04626585,0.9717722,-0.1851864,-8.480719,-36.34383,-8.09498,1008.271
1.101211071,0.2788536,0.174784,0.2270842,0.04192727,0.9698089,-0.1876033,-8.480719,-36.34383,-8.09498,1008.271
1.106236458,0.3406136,0.1145837,0.1660188,0.04388674,0.9678707,-0.1876292,-8.480719,-36.34383,-8.09498,1008.271
1.111261368,0.5258937,-0.005817059,0.2881496,0.04333582,0.973737,-0.1899486,-8.480719,-36.34383,-8.09498,1008.271
1.116285801,0.6494138,0.0543833,0.1049534,0.04141692,0.972218,-0.1837411,-8.480719,-36.34383,-8.09498,1008.271
1.121310234,0.6494138,0.2951847,0.1049534,0.04239455,0.9712886,-0.1895004,-8.480719,-36.34383,-8.09498,1008.271
1.126335144,0.3406136,0.174784,0.2270842,0.04723272,0.9718149,-0.1904543,-8.480719,-36.34383,-8.09498,1008.271
1.131359577,0.1553335,0.174784,0.04388801,0.04573751,0.9756742,-0.1856153,-8.480719,-36.34383,-8.09498,1008.271
1.136384487,0.09357345,0.2951847,0.1049534,0.04480403,0.9723098,-0.1937989,-8.480719,-36.34383,-8.09498,1008.269
1.141408920,-0.02994663,0.3553851,0.04388801,0.04334112,0.9732525,-0.1904337,-8.480719,-36.34383,-8.09498,1008.269
1.146433830,-0.462267,0.4155855,0.2270842,0.0404026,0.9761466,-0.1884795,-8.850727,-36.34781,-8.551755,1008.269
1.151458263,-0.2769868,0.4155855,0.1049534,0.04043967,0.9727555,-0.191875,-8.850727,-36.34781,-8.551755,1008.269
1.156482697,-0.2152268,0.2951847,0.1660188,0.03844877,0.9775937,-0.187981,-8.850727,-36.34781,-8.551755,1008.269
1.161507607,-0.2769868,0.2349844,0.2270842,0.04436905,0.9679136,-0.1933758,-8.850727,-36.34781,-8.551755,1008.269
1.166532040,-0.2152268,0.1145837,0.1049534,0.04281133,0.9775663,-0.1798426,-8.850727,-36.34781,-8.551755,1008.269
1.171556950,-0.2152268,0.174784,0.1049534,0.03987711,0.9796103,-0.1960975,-8.850727,-36.34781,-8.551755,1008.269
1.176581383,-0.2152268,0.174784,0.1660188,0.03994945,0.9732466,-0.1928263,-8.850727,-36.34781,-8.551755,1008.269
1.181605816,-0.462267,0.174784,-0.01717739,0.0399175,0.9761566,-0.1903947,-8.850727,-36.34781,-8.551755,1008.269
1.186630726,-0.2769868,-0.1262178,0.2270842,0.04190451,0.9717764,-0.1899728,-8.850727,-36.34781,-8.551755,1008.269
1.191656113,-0.4005069,0.2951847,0.04388801,0.04332878,0.9742544,-0.1942521,-8.47493,-36.71471,-9.005448,1008.269
1.196680546,-0.3387469,-0.005817059,0.1660188,0.03753362,0.9727296,-0.1909159,-8.47493,-36.71471,-9.005448,1008.269
1.201705456,-0.1534667,-0.06601742,-0.01717739,0.04332808,0.9742676,-0.1961676,-8.47493,-36.71471,-9.005448,1008.269
1.206729889,-0.09170669,0.0543833,0.04388801,0.04288919,0.9703295,-0.1914285,-8.47493,-36.71471,-9.005448,1008.269
1.211754322,-0.2769868,0.1145837,-0.261439,0.04334129,0.9732492,-0.1899548,-8.47493,-36.71471,-9.005448,1008.269
1.216779232,-0.1534667,0.0543833,0.2881496,0.03753485,0.9727065,-0.1875638,-8.47493,-36.71471,-9.005448,1008.269
1.221803665,-0.2769868,0.174784,-0.01717739,0.04044177,0.9727159,-0.1861287,-8.47493,-36.71471,-9.005448,1008.269
1.226828575,-0.524027,0.1145837,-0.01717739,0.04909181,0.9786924,-0.1956357,-8.47493,-36.71471,-9.005448,1008.269
1.231856823,-0.2152268,0.1145837,0.1660188,0.04337342,0.970336,-0.1919076,-8.47493,-36.71471,-9.005448,1008.269
1.236877441,-0.2769868,0.174784,0.04388801,0.04048926,0.9683592,-0.1909733,-8.47493,-36.71471,-9.005448,1008.269
1.241902351,-0.09170669,0.3553851,-0.07824278,0.04335416,0.9722375,-0.1846998,-8.477531,-36.71386,-8.096011,1008.269
1.246926784,0.1553335,0.2349844,-0.07824278,0.04676334,0.9703749,-0.1943036,-8.477531,-36.71386,-8.096011,1008.269
1.251951694,0.2788536,0.174784,0.1049534,0.03997151,0.9712924,-0.1923723,-8.477531,-36.71386,-8.096011,1008.269
1.256976127,0.03181341,0.2349844,0.1049534,0.03993729,0.9742452,-0.1961659,-8.477531,-36.71386,-8.096011,1008.269
1.262001037,0.2170936,0.3553851,-0.01717739,0.04092884,0.9722841,-0.1937969,-8.477531,-36.71386,-8.096011,1008.268
1.267025471,0.2170936,0.4155855,0.1049534,0.03897943,0.9732633,-0.1961778,-8.477531,-36.71386,-8.096011,1008.268
1.272046089,0.3406136,0.2349844,0.1049534,0.03462618,0.9727302,-0.1937875,-8.477531,-36.71386,-8.096011,1008.268
1.277071476,0.2170936,-0.005817059,0.1660188,0.04092564,0.9727289,-0.1875656,-8.477531,-36.71386,-8.096011,1008.268
1.282095909,0.3406136,0.3553851,-0.01717739,0.03986862,0.9805396,-0.189381,-8.477531,-36.71386,-8.096011,1008.268
1.287120819,0.4023737,0.2349844,-0.01717739,0.03799666,0.9746739,-0.1894546,-8.477531,-36.71386,-8.096011,1008.268
1.292147159,0.03181341,-0.005817059,0.04388801,0.04282372,0.9761791,-0.190875,-8.852083,-36.03988,-9.005614,1008.268
1.297169685,-0.02994663,-0.005817059,0.04388801,0.03702979,0.9746312,-0.1841867,-8.852083,-36.03988,-9.005614,1008.268
1.302194595,-0.2152268,0.0543833,0.04388801,0.0408902,0.9757049,-0.1947111,-8.852083,-36.03988,-9.005614,1008.266
1.307219028,-0.4005069,-0.1262178,-0.07824278,0.03895115,0.976104,-0.1836902,-8.852083,-36.03988,-9.005614,1008.266
1.312243938,-0.5857871,-0.06601742,-0.07824278,0.04720112,0.9747182,-0.187065,-8.852083,-36.03988,-9.005614,1008.266
1.317268371,-0.462267,-0.06601742,-0.1393082,0.04432121,0.9722769,-0.1894889,-8.852083,-36.03988,-9.005614,1008.266
1.322293281,-0.524027,0.174784,-0.07824278,0.04384141,0.9718024,-0.1918892,-8.852083,-36.03988,-9.005614,1008.266
1.327317715,-0.3387469,0.0543833,-0.01717739,0.04428734,0.9752231,-0.1923248,-8.852083,-36.03988,-9.005614,1008.266
1.332342148,-0.524027,0.174784,-0.07824278,0.04390548,0.9659792,-0.1962735,-8.852083,-36.03988,-9.005614,1008.266
1.337367058,-0.3387469,0.3553851,-0.2003736,0.04478373,0.974231,-0.1894643,-8.852083,-36.03988,-9.005614,1008.266
1.342391491,-0.2152268,0.3553851,-0.2003736,0.04334234,0.9732294,-0.1870817,-8.479418,-36.34426,-8.549699,1008.266
1.347416401,-0.2769868,0.174784,-0.01717739,0.04149827,0.9649152,-0.1857498,-8.479418,-36.34426,-8.549699,1008.266
1.352440834,-0.09170669,0.2951847,-0.07824278,0.04378583,0.9766963,-0.1942213,-8.479418,-36.34426,-8.549699,1008.266
1.357465267,-0.1534667,0.1145837,0.04388801,0.04382127,0.9737204,-0.1870757,-8.479418,-36.34426,-8.549699,1008.266
1.362490654,-0.2152268,0.174784,-0.07824278,0.043336,0.9737337,-0.1894698,-8.479418,-36.34426,-8.549699,1008.266
1.367517948,-0.2152268,0.2951847,0.04388801,0.03460233,0.975103,-0.1841792,-8.479418,-36.34426,-8.549699,1008.266
1.372539997,-0.1534667,0.2349844,-0.07824278,0.03995138,0.9732103,-0.1875588,-8.479418,-36.34426,-8.549699,1008.266
1.377564907,0.03181341,0.1145837,-0.07824278,0.04042059,0.9746537,-0.1841884,-8.479418,-36.34426,-8.549699,1008.266
1.382589340,0.03181341,0.2951847,-0.2003736,0.03949608,0.9707354,-0.1828011,-8.479418,-36.34426,-8.549699,1008.266
1.387613773,0.03181341,0.1145837,-0.1393082,0.03608397,0.9722686,-0.1961888,-8.479418,-36.34426,-8.549699,1008.266
1.392638683,0.4023737,0.2951847,-0.3225044,0.04718279,0.9762177,-0.1923138,-8.479418,-36.34426,-8.549699,1008.266
1.397663116,0.2788536,0.2951847,-0.261439,0.04285177,0.9737272,-0.1889907,-8.479418,-36.34426,-8.549699,1008.266
1.402688026,0.1553335,0.3553851,-0.261439,0.045779,0.9718152,-0.1918902,-8.479418,-36.34426,-8.549699,1008.266
1.405200481,0.3406136,0.4155855,-0.261439,0.04143053,0.9708076,-0.1914215,-8.479418,-36.34426,-8.549699,1008.266
1.410224914,0.09357345,0.5359862,-0.2003736,0.04623162,0.974725,-0.18898,-8.479418,-36.34426,-8.549699,1008.266
1.415249824,0.4641337,0.4757858,-0.261439,0.04238274,0.9722806,-0.1918822,-8.479418,-36.34426,-8.549699,1008.266
1.420274258,0.2788536,0.4155855,-0.261439,0.04479484,0.9732522,-0.1889979,-8.479418,-36.34426,-8.549699,1008.266
1.425299167,0.2788536,0.4155855,-0.2003736,0.04133276,0.9795737,-0.1893942,-8.479418,-36.34426,-8.549699,1008.266
1.430323601,0.4641337,0.4757858,-0.1393082,0.0394668,0.9732104,-0.1880375,-8.479418,-36.34426,-8.549699,1008.266
1.435348511,0.4641337,0.4155855,-0.1393082,0.04431079,0.9732424,-0.1880399,-8.479418,-36.34426,-8.549699,1008.266
1.440372944,0.4641337,0.1145837,-0.1393082,0.03898275,0.9732006,-0.1870795,-8.479418,-36.34426,-8.549699,1008.266
1.445397377,0.5876538,0.174784,-0.01717739,0.03848689,0.9741828,-0.1885034,-8.479418,-36.34426,-8.549699,1008.266
1.450422287,0.4641337,0.2951847,-0.2003736,0.0379866,0.9756329,-0.1870479,-8.479418,-36.34426,-8.549699,1008.266
1.455446720,0.2788536,0.2349844,-0.1393082,0.03797001,0.9770994,-0.1875081,-8.479418,-36.34426,-8.549699,1008.266
1.460471630,0.3406136,0.2951847,-0.2003736,0.04283077,0.9756616,-0.1865715,-8.479418,-36.34426,-8.549699,1008.266
1.465496063,0.3406136,0.2349844,-0.1393082,0.04622896,0.9751599,-0.181312,-8.479418,-36.34426,-8.549699,1008.266
1.470516682,0.1553335,0.4155855,-0.3225044,0.04429846,0.9742443,-0.1918584,-8.479418,-36.34426,-8.549699,1008.266
1.475541592,0.1553335,0.3553851,-0.4446352,0.0433339,0.9737733,-0.1952161,-8.479418,-36.34426,-8.549699,1008.266
1.480566025,0.2788536,0.6563869,-0.07824278,0.0443595,0.9688627,-0.1895324,-8.479418,-36.34426,-8.549699,1008.266
1.485590458,-0.1534667,0.2951847,-0.2003736,0.04676898,0.9698839,-0.193831,-8.479418,-36.34426,-8.549699,1008.266
1.490615368,-0.2769868,0.7165872,-0.1393082,0.04530572,0.9708332,-0.1914235,-8.479418,-36.34426,-8.549699,1008.266
1.495640755,-0.09170669,0.3553851,0.1049534,0.04339355,0.968418,-0.1967211,-8.479418,-36.34426,-8.549699,1008.266
1.500669002,-0.02994663,0.3553851,-0.01717739,0.04431928,0.9723132,-0.1947564,-8.479418,-36.34426,-8.549699,1008.266
1.505689621,0.1553335,0.2349844,-0.261439,0.04142419,0.9713119,-0.1938096,-8.479418,-36.34426,-8.549699,1008.266
1.510714531,-0.02994663,0.1145837,-0.1393082,0.03842531,0.9795743,-0.1922659,-8.479418,-36.34426,-8.549699,1008.266
1.515738964,0.3406136,0.174784,-0.07824278,0.04476219,0.9761754,-0.1884817,-8.479418,-36.34426,-8.549699,1008.266
1.520763874,0.3406136,0.1145837,-0.1393082,0.0413423,0.9786247,-0.1932375,-8.479418,-36.34426,-8.549699,1008.266
1.525788307,0.5258937,0.3553851,-0.3835697,0.0457495,0.9746789,-0.1827545,-8.479418,-36.34426,-8.549699,1008.266
1.530813217,0.1553335,0.6563869,-0.07824278,0.04861603,0.978142,-0.1870222,-8.479418,-36.34426,-8.549699,1008.266
1.535837650,-0.1534667,0.5359862,-0.4446352,0.04282157,0.9766041,-0.1817705,-8.480774,-36.03633,-9.003559,1008.266
1.540862083,-0.3387469,0.8971884,-0.01717739,0.04089265,0.9756587,-0.1880071,-8.480774,-36.03633,-9.003559,1008.266
1.545886993,-0.3387469,0.7767876,-0.2003736,0.04534348,0.9674289,-0.1929036,-8.480774,-36.03633,-9.003559,1008.266
1.550911426,-0.02994663,0.8971884,-0.1393082,0.03664461,0.9654501,-0.1972338,-8.480774,-36.03633,-9.003559,1008.266
1.555936336,-0.02994663,0.5359862,0.1049534,0.03414091,0.9727436,-0.1961816,-8.480774,-36.03633,-9.003559,1008.266
1.560960770,0.09357345,0.3553851,0.2881496,0.03810485,0.9649422,-0.192931,-8.480774,-36.03633,-9.003559,1008.266
1.565985203,0.03181341,0.1145837,0.2270842,0.03658921,0.9703407,-0.1990871,-8.480774,-36.03633,-9.003559,1008.266
1.571010589,0.09357345,-0.1262178,0.2881496,0.03172171,0.9726747,-0.1885186,-8.480774,-36.03633,-9.003559,1008.266
1.576035499,0.09357345,-0.3670192,0.2270842,0.03891273,0.979136,-0.1989764,-8.480774,-36.03633,-9.003559,1008.266
1.581059933,0.3406136,-0.48742,0.04388801,0.03508497,0.9751391,-0.1889681,-8.480774,-36.03633,-9.003559,1008.266
1.586089134,0.09357345,-0.4272196,-0.01717739,0.03844505,0.9780484,-0.1831862,-8.850727,-36.34781,-8.551755,1008.266
1.591109276,-0.09170669,-0.3670192,-0.07824278,0.0457527,0.974234,-0.1889859,-8.850727,-36.34781,-8.551755,1008.266
1.596133709,-0.2769868,-0.3670192,-0.07824278,0.04575602,0.9741713,-0.1798876,-8.850727,-36.34781,-8.551755,1008.266
1.601158619,-0.2152268,-0.005817059,-0.4446352,0.04479642,0.9732225,-0.1846881,-8.850727,-36.34781,-8.551755,1008.266
1.606183052,-0.1534667,0.174784,-0.2003736,0.04334729,0.9727516,-0.1885245,-8.850727,-36.34781,-8.551755,1008.266
1.611207962,-0.09170669,0.3553851,-0.3835697,0.04337481,0.9703096,-0.1880767,-8.850727,-36.34781,-8.551755,1008.266
1.616232395,0.1553335,0.3553851,-0.261439,0.04286976,0.9722342,-0.1846996,-8.850727,-36.34781,-8.551755,1008.266
1.621256828,0.4641337,0.2951847,-0.3225044,0.04480066,0.9727579,-0.1880464,-8.850727,-36.34781,-8.551755,1008.266
1.626281738,0.5258937,0.3553851,-0.2003736,0.04280289,0.9781102,-0.187977,-8.850727,-36.34781,-8.551755,1008.264
1.631306171,0.6494138,0.2349844,-0.3225044,0.03998525,0.9702641,-0.184723,-8.850727,-36.34781,-8.551755,1008.264
1.636331081,0.2788536,0.2349844,-0.1393082,0.0413774,0.9756553,-0.1870496,-8.166805,-36.71132,-8.549017,1008.264
1.641358375,0.09357345,0.0543833,-0.3835697,0.04382744,0.9732193,-0.1851665,-8.166805,-36.71132,-8.549017,1008.264
1.646380424,-0.09170669,0.0543833,-0.2003736,0.0394359,0.9761006,-0.1827327,-8.166805,-36.71132,-8.549017,1008.264
1.651404858,-0.3387469,0.0543833,-0.3225044,0.0418657,0.9752005,-0.1913658,-8.166805,-36.71132,-8.549017,1008.264
1.656429291,-0.02994663,0.2349844,-0.2003736,0.04048588,0.9688074,-0.1852207,-8.166805,-36.71132,-8.549017,1008.264
1.661454201,-0.2152268,0.0543833,-0.5057005,0.04331446,0.975678,-0.1884872,-8.166805,-36.71132,-8.549017,1008.264
1.666479587,0.09357345,-0.1262178,-0.3835697,0.04336283,0.9713049,-0.1909374,-8.166805,-36.71132,-8.549017,1008.266
1.671500206,-0.09170669,0.0543833,-0.261439,0.04526987,0.9742011,-0.1846759,-8.166805,-36.71132,-8.549017,1008.266
1.676524639,0.03181341,0.174784,-0.3225044,0.04046138,0.9708079,-0.1923788,-8.166805,-36.71132,-8.549017,1008.266
1.681549549,-0.02994663,-0.005817059,-0.566766,0.04531416,0.9702893,-0.1832891,-8.166805,-36.71132,-8.549017,1008.266
1.686573982,-0.09170669,0.174784,-0.5057005,0.04865222,0.9747674,-0.1928121,-8.853384,-36.03946,-8.550896,1008.266
1.691598415,-0.1534667,0.3553851,-0.261439,0.04280731,0.9776422,-0.1908564,-8.853384,-36.03946,-8.550896,1008.266
1.696623325,-0.02994663,0.2349844,-0.4446352,0.04139119,0.9742416,-0.1942512,-8.853384,-36.03946,-8.550896,1008.266
1.701647758,-0.2152268,0.2951847,-0.3225044,0.03990814,0.9771023,-0.1860725,-8.853384,-36.03946,-8.550896,1008.266
1.706672668,-0.2152268,0.2349844,-0.261439,0.04382569,0.9732524,-0.1899551,-8.853384,-36.03946,-8.550896,1008.266
1.711697102,-0.1534667,0.174784,-0.3225044,0.04379392,0.976159,-0.1870447,-8.853384,-36.03946,-8.550896,1008.266
1.716721535,-0.2769868,0.0543833,-0.261439,0.04238518,0.9722343,-0.1851782,-8.853384,-36.03946,-8.550896,1008.266
1.721746445,-0.2769868,0.174784,-0.3225044,0.03853472,0.9698195,-0.1923902,-8.853384,-36.03946,-8.550896,1008.266
1.726776123,-0.2769868,0.1145837,-0.2003736,0.04277204,0.9806149,-0.1975231,-8.853384,-36.03946,-8.550896,1008.266
1.731795788,-0.2769868,0.2951847,-0.2003736,0.04770828,0.9727539,-0.1846958,-8.478117,-36.34468,-9.004417,1008.266
1.736820221,-0.4005069,0.0543833,-0.2003736,0.0472322,0.9718248,-0.1918909,-8.478117,-36.34468,-9.004417,1008.266
1.741846085,-0.3387469,0.2349844,-0.07824278,0.04481498,0.9713343,-0.1938113,-8.478117,-36.34468,-9.004417,1008.266
1.746869564,-0.2152268,0.1145837,-0.01717739,0.04094578,0.970811,-0.192379,-8.478117,-36.34468,-9.004417,1008.266
1.751899719,-0.02994663,0.174784,-0.3225044,0.04138606,0.9747227,-0.1932872,-8.478117,-36.34468,-9.004417,1008.266
1.756919384,0.3406136,0.4155855,-0.1393082,0.04533552,0.9683483,-0.1847506,-8.478117,-36.34468,-9.004417,1008.266
1.761944294,0.2170936,0.4155855,-0.3225044,0.04523158,0.9776153,-0.1846324,-8.478117,-36.34468,-9.004417,1008.266
1.766968727,-0.02994663,0.2951847,0.1049534,0.04616895,0.9805218,-0.1807647,-8.478117,-36.34468,-9.004417,1008.266
1.771993160,0.1553335,0.5359862,-0.2003736,0.04137775,0.9756487,-0.1860919,-8.478117,-36.34468,-9.004417,1008.266
1.777018070,0.09357345,0.5359862,0.1049534,0.04381738,0.9741784,-0.1827598,-8.478117,-36.34468,-9.004417,1008.266
1.782042503,-0.3387469,0.6563869,0.1660188,0.04285882,0.9732097,-0.1846871,-8.84754,-36.71783,-8.552786,1008.266
1.787067413,0.09357345,0.4757858,0.1049534,0.04143123,0.9707944,-0.1895061,-8.84754,-36.71783,-8.552786,1008.266
1.792091846,0.1553335,0.4757858,0.349215,0.04046825,0.9702937,-0.1885541,-8.84754,-36.71783,-8.552786,1008.264
1.797116756,0.09357345,0.0543833,0.2881496,0.0418895,0.9732132,-0.1861232,-8.84754,-36.71783,-8.552786,1008.264
1.802145958,-0.02994663,-0.1262178,0.2881496,0.03988346,0.9791061,-0.1937094,-8.84754,-36.71783,-8.552786,1008.264
1.807165623,-0.09170669,-0.06601742,0.1660188,0.03945569,0.9741892,-0.1885039,-8.84754,-36.71783,-8.552786,1008.264
1.812190533,-0.2152268,-0.2466185,0.04388801,0.04042641,0.9741593,-0.1832369,-8.84754,-36.71783,-8.552786,1008.264
1.817214966,-0.2152268,-0.06601742,0.1049534,0.03942833,0.9766279,-0.1884728,-8.84754,-36.71783,-8.552786,1008.264
1.822239876,-0.2152268,-0.1262178,0.04388801,0.04331446,0.975678,-0.1884872,-8.84754,-36.71783,-8.552786,1008.264
1.827264309,-0.2152268,0.0543833,-0.07824278,0.04575287,0.9742308,-0.1885071,-8.84754,-36.71783,-8.552786,1008.264
1.832288742,-0.524027,0.174784,0.04388801,0.04186727,0.9751708,-0.1870561,-8.482075,-36.0359,-8.548841,1008.264
1.837314129,-0.6475471,0.2349844,0.04388801,0.04432685,0.9717858,-0.1890163,-8.482075,-36.0359,-8.548841,1008.264
1.842339039,-0.462267,0.3553851,0.1049534,0.04576434,0.9732454,-0.1870829,-8.482075,-36.0359,-8.548841,1008.264
1.847363472,-0.2769868,0.2951847,0.1049534,0.04189479,0.9727288,-0.1866083,-8.482075,-36.0359,-8.548841,1008.264
1.852388382,-0.02994663,0.4155855,0.1049534,0.04342882,0.9654454,-0.1900543,-8.482075,-36.0359,-8.548841,1008.264
1.857412815,0.09357345,0.1145837,0.1049534,0.03761551,0.9654168,-0.191488,-8.482075,-36.0359,-8.548841,1008.264
1.862439632,-0.09170669,-0.005817059,0.1049534,0.03895575,0.9756327,-0.1860907,-8.482075,-36.0359,-8.548841,1008.264
1.867462158,0.03181341,-0.005817059,0.1049534,0.03897868,0.973662,-0.1832424,-8.482075,-36.0359,-8.548841,1008.264
1.872482777,-0.1534667,0.1145837,-0.01717739,0.04285917,0.9732031,-0.1837294,-8.482075,-36.0359,-8.548841,1008.266
1.877507210,-0.2769868,-0.005817059,-0.07824278,0.03807116,0.9678851,-0.195288,-8.482075,-36.0359,-8.548841,1008.266
1.882532120,-0.09170669,0.0543833,-0.07824278,0.0414132,0.9726728,-0.1789463,-8.168106,-36.7109,-8.094298,1008.266
1.887556553,0.03181341,0.2349844,-0.2003736,0.03754877,0.971675,-0.1794357,-8.168106,-36.7109,-8.094298,1008.266
1.892580986,-0.09170669,0.0543833,-0.01717739,0.04141482,0.9722577,-0.1894875,-8.168106,-36.7109,-8.094298,1008.266
1.897605896,0.1553335,-0.1262178,-0.1393082,0.0409147,0.9737045,-0.1875531,-8.168106,-36.7109,-8.094298,1008.266
1.902630329,0.1553335,0.1145837,0.04388801,0.04092564,0.9727289,-0.1875656,-8.168106,-36.7109,-8.094298,1008.266
1.907655239,0.2170936,0.0543833,-0.261439,0.04577226,0.9727114,-0.1803851,-8.168106,-36.7109,-8.094298,1008.266
1.910167694,-0.09170669,0.0543833,-0.2003736,0.04236208,0.9742084,-0.1885053,-8.168106,-36.7109,-8.094298,1008.266
1.915192604,-0.02994663,0.1145837,-0.261439,0.04482836,0.9703126,-0.1871198,-8.168106,-36.7109,-8.094298,1008.266
1.920217037,-0.1534667,-0.005817059,-0.1393082,0.04428961,0.9751801,-0.1860996,-8.168106,-36.7109,-8.094298,1008.266
1.925241470,-0.09170669,0.0543833,-0.2003736,0.03948286,0.9717538,-0.1890138,-8.168106,-36.7109,-8.094298,1008.266
1.930266380,0.1553335,0.174784,0.1660188,0.04089777,0.9751775,-0.188971,-8.470442,-37.08515,-9.461198,1008.266
1.935290813,0.1553335,0.0543833,-0.01717739,0.0418828,0.9737241,-0.189469,-8.470442,-37.08515,-9.461198,1008.266
1.940315723,0.09357345,0.1145837,-0.01717739,0.04336458,0.9712719,-0.1861488,-8.470442,-37.08515,-9.461198,1008.266
1.945340157,0.1553335,-0.005817059,-0.07824278,0.03609736,0.971247,-0.1894972,-8.470442,-37.08515,-9.461198,1008.266
1.950365067,-0.09170669,0.0543833,-0.01717739,0.04334904,0.9727185,-0.1837359,-8.470442,-37.08515,-9.461198,1008.266
1.955389976,0.09357345,-0.005817059,-0.01717739,0.0433353,0.9737469,-0.1913852,-8.470442,-37.08515,-9.461198,1008.266
1.960418701,0.09357345,0.1145837,0.04388801,0.03939376,0.9795873,-0.1932241,-8.470442,-37.08515,-9.461198,1008.266
1.965439320,-0.02994663,0.174784,0.1049534,0.03754614,0.9717245,-0.1866185,-8.470442,-37.08515,-9.461198,1008.266
1.970464230,-0.02994663,-0.2466185,0.04388801,0.04527552,0.9737102,-0.1842033,-8.470442,-37.08515,-9.461198,1008.266
1.975488663,0.03181341,0.2349844,0.04388801,0.04139858,0.9737176,-0.1889899,-8.470442,-37.08515,-9.461198,1008.266
1.980513096,-0.09170669,-0.3068188,0.1049534,0.04091116,0.9741558,-0.1822794,-9.222038,-36.35135,-8.55381,1008.266
1.985538006,0.09357345,-0.005817059,0.1049534,0.04533924,0.9678935,-0.1895454,-9.222038,-36.35135,-8.55381,1008.266
1.990562439,0.09357345,0.1145837,-0.07824278,0.03563554,0.9692796,-0.1876064,-9.222038,-36.35135,-8.55381,1008.266
1.995587349,-0.09170669,-0.005817059,0.04388801,0.03947052,0.9727556,-0.1928323,-9.222038,-36.35135,-8.55381,1008.268
2.000611782,0.03181341,0.1145837,0.1049534,0.04086477,0.9781073,-0.1894126,-9.222038,-36.35135,-8.55381,1008.268
2.005636692,-0.1534667,-0.005817059,-0.01717739,0.03558474,0.973699,-0.1918602,-9.222038,-36.35135,-8.55381,1008.268
2.010661125,0.03181341,-0.005817059,0.2270842,0.04335451,0.9722309,-0.1837421,-9.222038,-36.35135,-8.55381,1008.268
2.015688419,-0.09170669,-0.06601742,0.1660188,0.04432581,0.9718056,-0.1918894,-9.222038,-36.35135,-8.55381,1008.268
2.020710468,0.03181341,-0.005817059,0.04388801,0.03849341,0.9736753,-0.1856364,-9.222038,-36.35135,-8.55381,1008.268
2.025734901,-0.02994663,0.0543833,-0.01717739,0.03898013,0.9732502,-0.1942624,-9.222038,-36.35135,-8.55381,1008.268
2.030759811,0.03181341,0.174784,-0.01717739,0.04480683,0.972257,-0.1861371,-8.169992,-36.3413,-8.547986,1008.268
2.035784245,0.09357345,0.0543833,-0.01717739,0.04627062,0.9712977,-0.1871081,-8.169992,-36.3413,-8.547986,1008.269
2.040808678,0.2788536,0.1145837,0.04388801,0.04191086,0.9712722,-0.1875847,-8.169992,-36.3413,-8.547986,1008.269
2.045833588,0.09357345,0.0543833,-0.01717739,0.03898927,0.9726931,-0.1842126,-8.169992,-36.3413,-8.547986,1008.269
2.050863266,0.09357345,0.2349844,0.1660188,0.04481813,0.9712749,-0.1851919,-8.169992,-36.3413,-8.547986,1008.269
2.055883408,0.1553335,0.174784,0.04388801,0.04427675,0.9761919,-0.1913546,-8.169992,-36.3413,-8.547986,1008.269
2.060908318,0.1553335,0.174784,0.1049534,0.0414044,0.9732232,-0.1880384,-8.169992,-36.3413,-8.547986,1008.269
2.065936565,-0.1534667,0.0543833,0.2270842,0.04137985,0.9756091,-0.1803456,-8.169992,-36.3413,-8.547986,1008.269
2.070953369,-0.02994663,0.2951847,0.1049534,0.04186022,0.9756882,-0.1913596,-8.169992,-36.3413,-8.547986,1008.269
2.075977802,-0.09170669,0.1145837,0.04388801,0.04088258,0.9766177,-0.1856004,-8.846239,-36.71825,-9.007504,1008.269
2.081002712,-0.02994663,0.1145837,0.04388801,0.04334322,0.9732129,-0.1846874,-8.846239,-36.71825,-9.007504,1008.269
2.086027145,0.03181341,0.0543833,0.04388801,0.04288407,0.9708107,-0.1904646,-8.846239,-36.71825,-9.007504,1008.269
2.091052055,-0.02994663,-0.005817059,0.1049534,0.04286341,0.9727384,-0.1870877,-8.846239,-36.71825,-9.007504,1008.269
2.096076489,0.09357345,0.0543833,-0.2003736,0.04293064,0.9668559,-0.1828525,-8.846239,-36.71825,-9.007504,1008.269
2.101100922,0.1553335,0.3553851,0.1660188,0.04293453,0.9663979,-0.1871685,-8.846239,-36.71825,-9.007504,1008.269
2.106125832,0.09357345,0.174784,-0.1393082,0.03853153,0.9702644,-0.1861588,-8.846239,-36.71825,-9.007504,1008.269
2.111151218,0.4023737,0.1145837,-0.2003736,0.04334147,0.9732459,-0.189476,-8.846239,-36.71825,-9.007504,1008.269
2.116175175,0.2788536,0.0543833,-0.1393082,0.04045411,0.971714,-0.1823103,-8.846239,-36.71825,-9.007504,1008.271
2.121199608,0.09357345,0.3553851,-0.1393082,0.04764333,0.9785937,-0.1827058,-8.846239,-36.71825,-9.007504,1008.271
2.126224518,0.09357345,-0.005817059,-0.07824278,0.04477489,0.9751669,-0.1837055,-8.482075,-36.0359,-8.548841,1008.271
2.131248951,-0.1534667,0.2951847,-0.01717739,0.04238396,0.9722574,-0.1885302,-8.482075,-36.0359,-8.548841,1008.271
2.136274338,-0.1534667,0.1145837,0.1049534,0.04335381,0.9722441,-0.1856575,-8.482075,-36.0359,-8.548841,1008.271
2.141298771,0.03181341,0.4155855,-0.07824278,0.04677108,0.9698443,-0.1880847,-8.482075,-36.0359,-8.548841,1008.271
2.146323681,-0.02994663,0.2349844,-0.261439,0.04338593,0.9693308,-0.1876103,-8.482075,-36.0359,-8.548841,1008.271
2.151348114,0.1553335,0.2349844,0.04388801,0.04285073,0.973747,-0.1918638,-8.482075,-36.0359,-8.548841,1008.271
2.156372547,0.2170936,0.2349844,-0.1393082,0.04285742,0.9732361,-0.188518,-8.482075,-36.0359,-8.548841,1008.267
2.161397457,0.2170936,0.2349844,-0.07824278,0.04426738,0.9771377,-0.1870325,-8.482075,-36.0359,-8.548841,1008.267
2.166421890,0.1553335,-0.005817059,-0.07824278,0.04094735,0.9707813,-0.1880693,-8.482075,-36.0359,-8.548841,1008.267
2.171446800,0.2170936,0.1145837,-0.1393082,0.03800726,0.9737051,-0.1904248,-8.482075,-36.0359,-8.548841,1008.267
2.176471233,0.1553335,0.0543833,-0.01717739,0.03900621,0.97122,-0.1827946,-8.165504,-36.71175,-9.003736,1008.267
2.181496143,0.1553335,0.2349844,-0.01717739,0.03990831,0.9770991,-0.1855936,-8.165504,-36.71175,-9.003736,1008.267
2.186523438,-0.09170669,0.1145837,-0.1393082,0.0408909,0.9756917,-0.1927957,-8.165504,-36.71175,-9.003736,1008.267
2.191545010,-0.1534667,0.3553851,-0.1393082,0.0423949,0.9712819,-0.1885426,-8.165504,-36.71175,-9.003736,1008.267
2.196569920,-0.09170669,0.1145837,-0.261439,0.04474049,0.978123,-0.187978,-8.165504,-36.71175,-9.003736,1008.267
2.201594353,-0.02994663,0.3553851,0.04388801,0.04086884,0.9776459,-0.1932497,-8.165504,-36.71175,-9.003736,1008.267
2.206619263,-0.2152268,0.2951847,-0.4446352,0.03801715,0.9727494,-0.1933104,-8.165504,-36.71175,-9.003736,1008.267
2.211648941,-0.1534667,0.174784,-0.261439,0.0448109,0.9717956,-0.1899742,-8.165504,-36.71175,-9.003736,1008.267
2.216668606,0.03181341,0.2951847,-0.2003736,0.03848776,0.9741663,-0.1861091,-8.165504,-36.71175,-9.003736,1008.267
2.221693516,0.2788536,-0.005817059,-0.3225044,0.03809002,0.9663758,-0.1886026,-8.165504,-36.71175,-9.003736,1008.267
2.226718426,0.3406136,0.2349844,-0.07824278,0.04434961,0.9698184,-0.1866468,-8.171293,-36.34087,-8.093267,1008.267
2.231742859,0.1553335,0.2951847,-0.07824278,0.04087024,0.9776195,-0.1894188,-8.171293,-36.34087,-8.093267,1008.267
2.236767769,0.4023737,-0.1864181,-0.261439,0.04628261,0.9703024,-0.1842473,-8.171293,-36.34087,-8.093267,1008.267
2.241792202,0.2788536,0.174784,0.04388801,0.04626974,0.9713142,-0.1895023,-8.171293,-36.34087,-8.093267,1008.267
2.246816635,0.2170936,0.1145837,-0.261439,0.04334234,0.9732294,-0.1870817,-8.171293,-36.34087,-8.093267,1008.267
2.251841545,0.03181341,0.3553851,-0.261439,0.04526335,0.9747087,-0.1875429,-8.171293,-36.34087,-8.093267,1008.267
2.256865978,0.09357345,0.174784,-0.1393082,0.04332418,0.9747257,-0.1918516,-8.171293,-36.34087,-8.093267,1008.267
2.261890888,0.03181341,0.2349844,-0.07824278,0.04574565,0.9747515,-0.1932894,-8.171293,-36.34087,-8.093267,1008.267
2.266915321,0.03181341,0.5359862,-0.2003736,0.04195514,0.9673604,-0.1861978,-8.171293,-36.34087,-8.093267,1008.267
2.271935940,0.09357345,0.4757858,-0.07824278,0.04237267,0.9732395,-0.1894755,-8.171293,-36.34087,-8.093267,1008.267
2.276960850,0.1553335,0.5359862,0.04388801,0.03948054,0.9721822,-0.1803881,-8.172649,-36.03295,-8.547128,1008.267
2.281985283,0.2788536,0.3553851,-0.01717739,0.03944615,0.9751382,-0.1846606,-8.172649,-36.03295,-8.547128,1008.267
2.287009716,0.2170936,0.2951847,0.1049534,0.04089812,0.975171,-0.1880133,-8.172649,-36.03295,-8.547128,1008.267
2.292034626,0.1553335,0.2349844,-0.01717739,0.03943276,0.9761599,-0.1913522,-8.172649,-36.03295,-8.547128,1008.267
2.297059059,-0.02994663,-0.06601742,-0.2003736,0.03893247,0.9776101,-0.1898967,-8.172649,-36.03295,-8.547128,1008.267
2.302083969,0.03181341,0.0543833,-0.1393082,0.03659201,0.9702879,-0.1914253,-8.172649,-36.03295,-8.547128,1008.267
2.307108402,0.1553335,-0.3068188,-0.07824278,0.04385677,0.970359,-0.194781,-8.172649,-36.03295,-8.547128,1008.267
2.312133789,0.3406136,-0.005817059,-0.01717739,0.04232571,0.9775862,-0.1831944,-8.172649,-36.03295,-8.547128,1008.267
2.317158222,0.2170936,-0.1262178,-0.1393082,0.0448144,0.9717296,-0.180397,-8.172649,-36.03295,-8.547128,1008.267
2.322184086,0.2170936,0.0543833,-0.3225044,0.04672307,0.9742108,-0.1846767,-8.166805,-36.71132,-8.549017,1008.268
2.327207565,-0.09170669,-0.1262178,-0.07824278,0.04045464,0.9717041,-0.1808737,-8.166805,-36.71132,-8.549017,1008.268
2.332232475,-0.1534667,-0.06601742,-0.1393082,0.04282547,0.976146,-0.1860864,-8.166805,-36.71132,-8.549017,1008.268
2.337256908,-0.09170669,-0.06601742,-0.2003736,0.04625491,0.9727476,-0.1851739,-8.166805,-36.71132,-8.549017,1008.268
2.342281341,-0.02994663,0.2951847,-0.1393082,0.03996866,0.9717306,-0.1851832,-8.166805,-36.71132,-8.549017,1008.268
2.347306251,-0.1534667,-0.1262178,-0.01717739,0.04480136,0.9727446,-0.1861309,-8.166805,-36.71132,-8.549017,1008.268
2.352330685,-0.09170669,-0.06601742,-0.07824278,0.04189252,0.9727716,-0.1928335,-8.166805,-36.71132,-8.549017,1008.268
2.357355594,0.2170936,0.1145837,0.04388801,0.04525683,0.9752163,-0.1904098,-8.166805,-36.71132,-8.549017,1008.268
2.362380028,0.03181341,-0.06601742,-0.01717739,0.04383681,0.9722736,-0.1894887,-8.166805,-36.71132,-8.549017,1008.268
2.367404461,-0.09170669,-0.005817059,-0.01717739,0.04769419,0.9737889,-0.1933029,-8.166805,-36.71132,-8.549017,1008.268
2.372429371,0.03181341,0.4757858,-0.01717739,0.03901663,0.9702544,-0.1842436,-8.479418,-36.34426,-8.549699,1008.268
2.377457142,0.09357345,0.0543833,0.04388801,0.04138904,0.9746666,-0.1851466,-8.479418,-36.34426,-8.549699,1008.268
2.382478714,0.03181341,0.0543833,-0.07824278,0.03703072,0.9742293,-0.1966433,-8.479418,-36.34426,-8.549699,1008.268
2.387503147,-0.09170669,-0.005817059,-0.1393082,0.04332169,0.9751573,-0.1837048,-8.479418,-36.34426,-8.549699,1008.268
2.392528057,0.1553335,-0.005817059,-0.07824278,0.04196911,0.9659433,-0.1929206,-8.479418,-36.34426,-8.549699,1008.268
2.397552967,0.03181341,0.2951847,-0.1393082,0.0481708,0.9747081,-0.1846712,-8.479418,-36.34426,-8.549699,1008.268
2.402577877,0.3406136,0.2349844,-0.07824278,0.04187186,0.9746996,-0.1894566,-8.479418,-36.34426,-8.549699,1008.268
2.407602310,0.1553335,-0.06601742,-0.2003736,0.04283147,0.9756484,-0.1846561,-8.479418,-36.34426,-8.549699,1008.268
2.412627220,0.1553335,-0.005817059,-0.2003736,0.04087006,0.9776228,-0.1898977,-8.479418,-36.34426,-8.549699,1008.268
2.417651653,0.03181341,0.1145837,-0.1393082,0.04572709,0.9766398,-0.1841662,-8.479418,-36.34426,-8.549699,1008.268
2.420163631,0.03181341,0.2951847,-0.1393082,0.04527534,0.9737135,-0.1846821,-8.479418,-36.34426,-8.549699,1008.268
2.425188064,0.03181341,0.2349844,-0.2003736,0.04239316,0.971315,-0.1933312,-8.479418,-36.34426,-8.549699,1008.268
2.430212974,0.09357345,0.4155855,-0.2003736,0.04580053,0.9698708,-0.1928728,-8.479418,-36.34426,-8.549699,1008.268
2.435237408,0.09357345,0.3553851,-0.1393082,0.0458014,0.9698544,-0.1904785,-8.479418,-36.34426,-8.549699,1008.268
2.440262794,0.1553335,0.3553851,-0.261439,0.04183799,0.9776458,-0.1922925,-8.479418,-36.34426,-8.549699,1008.268
2.445287704,0.03181341,0.1145837,-0.2003736,0.04528046,0.9732323,-0.1856461,-8.479418,-36.34426,-8.549699,1008.268
2.450312137,-0.1534667,0.4155855,-0.1393082,0.04286306,0.9727451,-0.1880454,-8.479418,-36.34426,-8.549699,1008.268
2.455336571,-0.09170669,0.174784,-0.07824278,0.0423949,0.9712819,-0.1885426,-8.479418,-36.34426,-8.549699,1008.268
2.460364818,0.03181341,0.2349844,-0.2003736,0.04334357,0.9732063,-0.1837297,-8.479418,-36.34426,-8.549699,1008.268
2.465385914,0.03181341,0.0543833,-0.1393082,0.03847065,0.9756427,-0.1880059,-8.479418,-36.34426,-8.549699,1008.268
2.470406532,-0.2152268,0.1145837,-0.01717739,0.04089195,0.9756719,-0.1899225,-8.479418,-36.34426,-8.549699,1008.268
2.475431442,-0.2152268,0.0543833,-0.07824278,0.03896686,0.974654,-0.1856243,-8.479418,-36.34426,-8.549699,1008.268
2.480455875,-0.02994663,-0.06601742,-0.1393082,0.04237901,0.9727352,-0.1870874,-8.479418,-36.34426,-8.549699,1008.268
2.485480785,-0.1534667,-0.2466185,-0.1393082,0.04480259,0.9727216,-0.1827789,-8.479418,-36.34426,-8.549699,1008.268
2.490505218,-0.1534667,0.3553851,-0.07824278,0.04377116,0.9781265,-0.1894141,-8.479418,-36.34426,-8.549699,1008.268
2.495529652,-0.2152268,0.0543833,-0.01717739,0.04678465,0.9688193,-0.1809142,-8.479418,-36.34426,-8.549699,1008.268
2.500554561,-0.2152268,0.2349844,-0.01717739,0.04379304,0.9761755,-0.1894389,-8.479418,-36.34426,-8.549699,1008.268
2.505578995,0.09357345,0.4757858,-0.07824278,0.04387458,0.9688694,-0.1909688,-8.479418,-36.34426,-8.549699,1008.268
2.510603905,-0.09170669,0.5961865,0.2270842,0.04328729,0.9781134,-0.1879772,-8.479418,-36.34426,-8.549699,1008.268
2.515628338,0.03181341,0.3553851,0.04388801,0.04044195,0.9727126,-0.1856499,-8.479418,-36.34426,-8.549699,1008.268
2.520653725,-0.2152268,0.4757858,-0.01717739,0.0433392,0.9732888,-0.1957012,-8.849426,-36.34823,-9.006474,1008.268
2.525678158,-0.1534667,0.2951847,0.04388801,0.04429915,0.9742311,-0.1899429,-8.849426,-36.34823,-9.006474,1008.268
2.530703068,-0.2769868,0.2951847,-0.1393082,0.04478198,0.974264,-0.1942529,-8.849426,-36.34823,-9.006474,1008.268
2.535727501,-0.09170669,0.2951847,0.1049534,0.03750272,0.9756198,-0.1856111,-8.849426,-36.34823,-9.006474,1008.268
2.540752411,-0.1534667,0.1145837,-0.07824278,0.03854264,0.9692856,-0.1856924,-8.849426,-36.34823,-9.006474,1008.268
2.545776844,-0.2152268,0.2349844,-0.01717739,0.0424037,0.9707315,-0.1794505,-8.849426,-36.34823,-9.006474,1008.268
2.550801277,-0.2152268,0.4757858,-0.07824278,0.04426383,0.9775891,-0.1817588,-8.849426,-36.34823,-9.006474,1008.268
2.555826187,-0.2152268,0.4155855,0.1049534,0.04482464,0.9707673,-0.1823249,-8.849426,-36.34823,-9.006474,1008.268
2.560850620,-0.462267,0.4757858,0.04388801,0.04670491,0.9757071,-0.1894466,-8.849426,-36.34823,-9.006474,1008.268
2.565875530,-0.524027,0.7165872,0.04388801,0.03703299,0.9741864,-0.1904181,-8.849426,-36.34823,-9.006474,1008.268
2.570899963,-0.4005069,0.5961865,0.2270842,0.03796879,0.9771225,-0.1908601,-7.795496,-36.70778,-8.546962,1008.268
2.575924396,-0.1534667,0.1145837,0.1660188,0.03514148,0.9698433,-0.1990926,-7.795496,-36.70778,-8.546962,1008.268
2.580949306,-0.1534667,0.1145837,0.2881496,0.03955171,0.9654561,-0.1953198,-7.795496,-36.70778,-8.546962,1008.268
2.585973740,0.3406136,-0.06601742,0.2270842,0.0375977,0.9669064,-0.1953002,-7.795496,-36.70778,-8.546962,1008.268
2.590998650,0.5258937,-0.4272196,0.1660188,0.03463113,0.9722524,-0.1952303,-7.795496,-36.70778,-8.546962,1008.268
2.596023083,0.5876538,-0.9088224,0.2881496,0.03660754,0.9688412,-0.1938383,-7.795496,-36.70778,-8.546962,1008.268
2.601047993,0.7111739,-0.9088224,0.1049534,0.0356036,0.9721895,-0.1851748,-7.795496,-36.70778,-8.546962,1008.268
2.606077671,0.4641337,-0.8486221,0.1049534,0.03847222,0.975613,-0.1836961,-7.795496,-36.70778,-8.546962,1008.27
2.611097813,0.2788536,-0.7884218,-0.01717739,0.04574827,0.974702,-0.1861065,-7.795496,-36.70778,-8.546962,1008.27
2.616122246,0.2788536,-0.668021,-0.07824278,0.04764828,0.9781158,-0.1841486,-7.795496,-36.70778,-8.546962,1008.27
2.621147156,0.2788536,-0.5476203,-0.2003736,0.0477464,0.9693431,-0.1852182,-8.476231,-36.71428,-8.55073,1008.27
2.626171589,0.4641337,-0.005817059,-0.1393082,0.04432418,0.9722207,-0.1813483,-8.476231,-36.71428,-8.55073,1008.27
2.631196022,0.7111739,-0.1262178,-0.1393082,0.04769489,0.9737757,-0.1913874,-8.476231,-36.71428,-8.55073,1008.27
2.636220932,0.896454,0.174784,-0.1393082,0.04818721,0.9732449,-0.1846898,-8.476231,-36.71428,-8.55073,1008.27
2.641245365,0.7111739,0.2349844,-0.07824278,0.04475777,0.9766433,-0.1856023,-8.476231,-36.71428,-8.55073,1008.27
2.646270275,0.4641337,0.2349844,-0.07824278,0.04525136,0.975704,-0.1904036,-8.476231,-36.71428,-8.55073,1008.27
2.651294708,0.5876538,0.174784,-0.01717739,0.04334834,0.9727318,-0.1856513,-8.476231,-36.71428,-8.55073,1008.27
2.656319618,0.2170936,0.174784,-0.01717739,0.04139276,0.9742119,-0.1899414,-8.476231,-36.71428,-8.55073,1008.27
2.661344051,0.3406136,-0.005817059,-0.2003736,0.03655988,0.9732011,-0.1894726,-8.476231,-36.71428,-8.55073,1008.27
2.666371822,0.4023737,0.0543833,-0.07824278,0.03944439,0.9751713,-0.1894492,-8.483961,-35.66631,-9.002528,1008.27
2.671389103,0.4641337,-0.1864181,-0.07824278,0.03607496,0.9732078,-0.1909089,-8.483961,-35.66631,-9.002528,1008.27
2.676414013,0.6494138,-0.3068188,-0.1393082,0.03991308,0.9766245,-0.1875153,-8.483961,-35.66631,-9.002528,1008.27
2.681441307,0.6494138,-0.06601742,-0.1393082,0.04138217,0.9751807,-0.1889713,-8.483961,-35.66631,-9.002528,1008.27
2.686463356,0.4641337,-0.3068188,-0.1393082,0.03947617,0.9722646,-0.1923596,-8.483961,-35.66631,-9.002528,1008.27
2.691487789,0.3406136,-0.48742,-0.1393082,0.03988468,0.979083,-0.1903574,-8.483961,-35.66631,-9.002528,1008.27
2.696512699,0.1553335,-0.2466185,-0.2003736,0.04331411,0.9756846,-0.1894449,-8.483961,-35.66631,-9.002528,1008.27
2.701537609,0.2788536,-0.3068188,-0.3225044,0.04672307,0.9742108,-0.1846767,-8.483961,-35.66631,-9.002528,1008.27
2.706562519,-0.1534667,-0.2466185,-0.07824278,0.04047354,0.9698092,-0.1890392,-8.483961,-35.66631,-9.002528,1008.27
2.711586952,-0.2769868,-0.1262178,-0.2003736,0.05012765,0.9728194,-0.19188,-8.483961,-35.66631,-9.002528,1008.27
2.716611862,-0.3387469,-0.005817059,-0.1393082,0.03941704,0.9776099,-0.1894181,-8.473042,-37.0843,-8.551761,1008.27
2.721636295,-0.09170669,-0.1864181,-0.1393082,0.0472823,0.9674187,-0.1895526,-8.473042,-37.0843,-8.551761,1008.27
2.829667091,-0.09170669,-0.005817059,0.04388801,0.04139119,0.9742416,-0.1942512,-8.483376,-36.03548,-8.094122,1008.274
2.832179069,-0.02994663,-0.06601742,0.04388801,0.0384756,0.9751649,-0.1894487,-8.483376,-36.03548,-8.094122,1008.274
2.837208271,0.09357345,-0.06601742,0.1049534,0.04044212,0.9727092,-0.185171,-8.483376,-36.03548,-8.094122,1008.274
2.842227936,0.2788536,-0.3670192,0.04388801,0.04089422,0.975629,-0.1836974,-8.483376,-36.03548,-8.094122,1008.274
2.847252846,0.09357345,-0.3068188,0.2270842,0.03556763,0.9751754,-0.1937569,-8.483376,-36.03548,-8.094122,1008.274
2.852277279,-0.2769868,-0.3670192,-0.07824278,0.03849376,0.9736687,-0.1846787,-8.483376,-36.03548,-8.094122,1008.275
2.857302189,-0.1534667,-0.6078206,-0.07824278,0.04385235,0.9708269,-0.1919016,-8.483376,-36.03548,-8.094122,1008.275
2.862326622,0.03181341,-0.3068188,-0.01717739,0.04281965,0.9766404,-0.1870379,-9.220737,-36.35178,-9.008529,1008.275
2.867352009,-0.09170669,-0.1864181,-0.1393082,0.03954973,0.9658778,-0.1857364,-9.220737,-36.35178,-9.008529,1008.275
2.872372627,0.2170936,-0.2466185,-0.2003736,0.04193978,0.9688038,-0.1833061,-9.220737,-36.35178,-9.008529,1008.275
2.877397060,0.3406136,-0.1262178,-0.01717739,0.04530112,0.9713044,-0.189023,-9.220737,-36.35178,-9.008529,1008.275
2.882421970,0.4023737,-0.2466185,-0.01717739,0.04719478,0.9752225,-0.1894531,-9.220737,-36.35178,-9.008529,1008.275
2.887446403,0.4641337,-0.005817059,-0.2003736,0.04185138,0.9766241,-0.1856008,-9.220737,-36.35178,-9.008529,1008.275
2.892471313,0.4641337,0.0543833,-0.07824278,0.03946291,0.9736685,-0.1837215,-9.220737,-36.35178,-9.008529,1008.277
2.897495747,0.2170936,-0.2466185,-0.07824278,0.04383891,0.972234,-0.1837424,-9.220737,-36.35178,-9.008529,1008.277
2.902520180,-0.02994663,-0.06601742,-0.01717739,0.04141232,0.9726892,-0.1813406,-9.220737,-36.35178,-9.008529,1008.277
2.907545090,-0.02994663,-0.06601742,-0.1393082,0.04338151,0.9697987,-0.1847309,-9.220737,-36.35178,-9.008529,1008.277
2.912569523,-0.09170669,-0.3068188,-0.2003736,0.04138869,0.9746732,-0.1861043,-8.84754,-36.71783,-8.552786,1008.277
2.917594433,0.03181341,-0.3068188,-0.07824278,0.04819745,0.9722827,-0.1866177,-8.84754,-36.71783,-8.552786,1008.277
2.920106888,0.03181341,-0.3068188,-0.07824278,0.04140777,0.972775,-0.193791,-8.84754,-36.71783,-8.552786,1008.277
2.925131798,0.2788536,-0.1864181,-0.07824278,0.04428396,0.9756712,-0.1865722,-8.84754,-36.71783,-8.552786,1008.277
2.930156231,0.1553335,-0.1262178,-0.2003736,0.04337429,0.9703195,-0.1895133,-8.84754,-36.71783,-8.552786,1008.279
2.935180664,0.03181341,-0.1262178,-0.07824278,0.0462595,0.9722764,-0.1875745,-8.84754,-36.71783,-8.552786,1008.279
2.940205574,0.09357345,-0.1262178,-0.01717739,0.04236383,0.9741753,-0.1837167,-8.84754,-36.71783,-8.552786,1008.279
2.945230007,0.1553335,-0.3068188,0.04388801,0.04040685,0.975682,-0.1918377,-8.84754,-36.71783,-8.552786,1008.279
2.950254917,0.1553335,-0.3068188,-0.07824278,0.04141285,0.9726793,-0.179904,-8.84754,-36.71783,-8.552786,1008.279
2.955279350,0.09357345,-0.2466185,0.04388801,0.04044689,0.9722348,-0.1870927,-8.84754,-36.71783,-8.552786,1008.279
2.960303783,0.1553335,-0.3068188,0.04388801,0.04237302,0.9732329,-0.1885178,-8.84754,-36.71783,-8.552786,1008.279
2.965328693,0.2788536,-0.1262178,-0.01717739,0.04141941,0.9717864,-0.191888,-8.478117,-36.34468,-9.004417,1008.279
2.970353127,0.5258937,-0.1262178,0.04388801,0.03943398,0.9761369,-0.1880001,-8.478117,-36.34468,-9.004417,1008.279
2.975378036,0.2788536,-0.005817059,-0.07824278,0.04382744,0.9732193,-0.1851665,-8.478117,-36.34468,-9.004417,1008.279
2.980402470,-0.02994663,-0.005817059,-0.01717739,0.03800371,0.9741564,-0.1851511,-8.478117,-36.34468,-9.004417,1008.279
2.985427380,0.3406136,-0.06601742,-0.07824278,0.04236155,0.9742182,-0.1899419,-8.478117,-36.34468,-9.004417,1008.279
2.990451813,0.1553335,-0.3068188,-0.1393082,0.04233472,0.9766471,-0.1884743,-8.478117,-36.34468,-9.004417,1008.279
2.995476246,0.03181341,-0.2466185,-0.07824278,0.04183235,0.9781368,-0.1927651,-8.478117,-36.34468,-9.004417,1008.279
3.000501633,-0.02994663,-0.1262178,-0.2003736,0.04378123,0.9771675,-0.1918208,-8.478117,-36.34468,-9.004417,1008.279
3.005526543,0.1553335,0.0543833,-0.2003736,0.04434239,0.9703391,-0.1914292,-8.478117,-36.34468,-9.004417,1008.279
3.010550976,0.03181341,-0.1864181,-0.2003736,0.04574088,0.975226,-0.1913678,-8.476231,-36.71428,-8.55073,1008.279
3.015575409,-0.02994663,0.0543833,-0.07824278,0.04289536,0.9698285,-0.1895193,-8.476231,-36.71428,-8.55073,1008.279
3.020600319,0.03181341,0.1145837,-0.07824278,0.04334624,0.9727713,-0.1913977,-8.476231,-36.71428,-8.55073,1008.279
3.025624752,-0.09170669,-0.1262178,-0.07824278,0.0443353,0.971242,-0.1808819,-8.476231,-36.71428,-8.55073,1008.279
3.030649662,-0.02994663,0.3553851,-0.07824278,0.04092582,0.9727256,-0.1870867,-8.476231,-36.71428,-8.55073,1008.279
3.035674095,-0.09170669,-0.06601742,-0.01717739,0.04529635,0.971779,-0.1871013,-8.476231,-36.71428,-8.55073,1008.279
3.040699005,0.1553335,-0.005817059,-0.07824278,0.04094683,0.9707912,-0.1895059,-8.476231,-36.71428,-8.55073,1008.279
3.045723438,0.2170936,-0.1262178,-0.07824278,0.04675222,0.9713537,-0.19477,-8.476231,-36.71428,-8.55073,1008.279
3.050747871,0.09357345,0.1145837,-0.07824278,0.04337889,0.9698483,-0.1919138,-8.476231,-36.71428,-8.55073,1008.279
3.055772781,-0.02994663,-0.005817059,0.1049534,0.04235556,0.9747159,-0.1913723,-8.476231,-36.71428,-8.55073,1008.281
3.060797215,0.09357345,0.1145837,0.1049534,0.04533941,0.9678902,-0.1890665,-8.47493,-36.71471,-9.005448,1008.281
3.065822601,-0.02994663,0.174784,0.04388801,0.04334589,0.972778,-0.1923554,-8.47493,-36.71471,-9.005448,1008.281
3.070842743,0.1553335,0.2349844,0.1660188,0.04673721,0.9727905,-0.1909205,-8.47493,-36.71471,-9.005448,1008.281
3.075867176,0.09357345,0.1145837,0.1049534,0.03855499,0.9682837,-0.181874,-8.47493,-36.71471,-9.005448,1008.281
3.080892086,0.2170936,-0.06601742,-0.07824278,0.0428502,0.9737569,-0.1933004,-8.47493,-36.71471,-9.005448,1008.281
3.085918427,0.2170936,0.1145837,0.1049534,0.04136733,0.9766143,-0.1846429,-8.47493,-36.71471,-9.005448,1008.281
3.090941906,0.09357345,-0.1262178,0.2270842,0.03701868,0.97561,-0.1846531,-8.47493,-36.71471,-9.005448,1008.281
3.095966339,0.1553335,-0.1864181,0.1049534,0.03800813,0.9736886,-0.1880305,-8.47493,-36.71471,-9.005448,1008.279
3.100991249,-0.02994663,-0.1864181,0.04388801,0.04141039,0.9727256,-0.1866081,-8.47493,-36.71471,-9.005448,1008.279
3.106015682,0.2788536,-0.3670192,-0.01717739,0.03513666,0.9707033,-0.18232,-8.47493,-36.71471,-9.005448,1008.279
3.111040115,0.2170936,-0.3670192,0.1660188,0.04285335,0.9736975,-0.1846809,-8.478117,-36.34468,-9.004417,1008.279
3.116065025,0.1553335,-0.3068188,-0.07824278,0.04376674,0.9785945,-0.1865347,-8.478117,-36.34468,-9.004417,1008.279
3.121089458,-0.09170669,-0.2466185,-0.1393082,0.0433577,0.971786,-0.1899735,-8.478117,-36.34468,-9.004417,1008.279
3.126114368,0.03181341,-0.1262178,0.2881496,0.04384193,0.9717925,-0.1904526,-8.478117,-36.34468,-9.004417,1008.279
3.131138802,-0.09170669,-0.3068188,0.04388801,0.04766311,0.9766823,-0.1884769,-8.478117,-36.34468,-9.004417,1008.279
3.136163712,-0.2152268,-0.1262178,-0.01717739,0.04379869,0.9756845,-0.1889663,-8.478117,-36.34468,-9.004417,1008.279
3.141188145,0.2788536,-0.2466185,0.04388801,0.04432825,0.9717594,-0.1851854,-8.478117,-36.34468,-9.004417,1008.279
3.146215916,0.3406136,-0.3068188,0.04388801,0.04288407,0.9708107,-0.1904646,-8.478117,-36.34468,-9.004417,1008.279
3.151237488,0.5258937,-0.3068188,0.2270842,0.04330248,0.9766733,-0.1913479,-8.478117,-36.34468,-9.004417,1008.279
3.156261921,0.5258937,-0.06601742,-0.07824278,0.04136309,0.9770789,-0.1812847,-8.478117,-36.34468,-9.004417,1008.279
3.161286831,0.1553335,0.1145837,0.1660188,0.04480596,0.9722735,-0.1885314,-8.853384,-36.03946,-8.550896,1008.279
3.166311264,0.1553335,0.0543833,0.1049534,0.04288814,0.9703493,-0.1943016,-8.853384,-36.03946,-8.550896,1008.279
3.171336651,-0.09170669,-0.06601742,0.1049534,0.04429333,0.9747254,-0.1908944,-8.853384,-36.03946,-8.550896,1008.279
3.176361084,-0.1534667,0.0543833,0.1660188,0.04042943,0.9737178,-0.1899472,-8.853384,-36.03946,-8.550896,1008.279
3.181385994,-0.09170669,0.0543833,-0.07824278,0.04238006,0.9727154,-0.1842143,-8.853384,-36.03946,-8.550896,1008.279
3.186410427,-0.09170669,0.1145837,0.04388801,0.03899759,0.9717671,-0.1914079,-8.853384,-36.03946,-8.550896,1008.279
3.191435337,0.03181341,-0.06601742,-0.01717739,0.04381318,0.9742576,-0.1942524,-8.853384,-36.03946,-8.550896,1008.279
3.196459770,0.2788536,-0.2466185,0.04388801,0.04183886,0.9776292,-0.1898981,-8.853384,-36.03946,-8.550896,1008.279
3.201484203,0.1553335,-0.06601742,0.1660188,0.04043298,0.9732663,-0.1952208,-8.853384,-36.03946,-8.550896,1008.279
3.206509113,-0.2152268,-0.06601742,0.2270842,0.04771782,0.9718049,-0.1885391,-8.477531,-36.71386,-8.096011,1008.279
3.211533546,-0.2152268,-0.005817059,0.1660188,0.03942269,0.9771189,-0.1889454,-8.477531,-36.71386,-8.096011,1008.279
3.216558456,-0.02994663,-0.005817059,0.1660188,0.04582329,0.9679034,-0.1905033,-8.477531,-36.71386,-8.096011,1008.277
3.221586704,-0.1534667,0.0543833,0.1660188,0.04140987,0.9727355,-0.1880447,-8.477531,-36.71386,-8.096011,1008.277
3.226607323,-0.2769868,0.0543833,0.1660188,0.04527854,0.9732686,-0.1909136,-8.477531,-36.71386,-8.096011,1008.277
3.231632232,-0.1534667,-0.1262178,0.2881496,0.04189252,0.9727716,-0.1928335,-8.477531,-36.71386,-8.096011,1008.277
3.236656666,-0.2769868,-0.06601742,0.2270842,0.04722336,0.9727606,-0.1861321,-8.477531,-36.71386,-8.096011,1008.277
3.241681576,-0.3387469,-0.2466185,0.1660188,0.04520847,0.9795894,-0.1879596,-8.477531,-36.71386,-8.096011,1008.277
3.246706009,-0.02994663,-0.06601742,0.1049534,0.04383064,0.9727745,-0.1913979,-8.477531,-36.71386,-8.096011,1008.277
3.251730919,-0.02994663,-0.06601742,0.2270842,0.0462634,0.9718184,-0.1918904,-8.477531,-36.71386,-8.096011,1008.277
3.256755829,0.09357345,-0.1864181,0.04388801,0.04625526,0.9727411,-0.1842162,-9.220152,-36.72095,-8.100122,1008.277
3.261780739,0.03181341,0.1145837,0.1049534,0.04579769,0.9703091,-0.1856837,-9.220152,-36.72095,-8.100122,1008.277
3.266805172,0.03181341,0.1145837,0.1660188,0.04763134,0.9795889,-0.1855665,-9.220152,-36.72095,-8.100122,1008.277
3.271825790,-0.02994663,0.1145837,0.2270842,0.04188385,0.9737043,-0.1865959,-9.220152,-36.72095,-8.100122,1008.277
3.276850700,-0.2152268,-0.005817059,0.1660188,0.04769275,0.9742007,-0.1822829,-9.220152,-36.72095,-8.100122,1008.277
3.281875133,-0.3387469,0.1145837,0.4102804,0.04526725,0.9742507,-0.1918588,-9.220152,-36.72095,-8.100122,1008.277
3.286900043,-0.4005069,0.1145837,0.349215,0.04286766,0.9722739,-0.1904459,-9.220152,-36.72095,-8.100122,1008.277
3.291924476,-0.2152268,-0.06601742,0.4713458,0.04289711,0.9697955,-0.1847307,-9.220152,-36.72095,-8.100122,1008.277
3.296948910,-0.02994663,-0.005817059,0.4713458,0.04283978,0.9747224,-0.1918514,-9.220152,-36.72095,-8.100122,1008.277
3.301973820,-0.02994663,-0.1262178,0.2881496,0.03995632,0.9727324,-0.1890016,-9.220152,-36.72095,-8.100122,1008.277
3.306998253,-0.09170669,-0.1864181,0.4102804,0.0467573,0.971258,-0.1808831,-8.84754,-36.71783,-8.552786,1008.277
3.312023163,-0.524027,-0.005817059,0.2270842,0.04038107,0.9780909,-0.1874969,-8.84754,-36.71783,-8.552786,1008.277
3.317047596,-0.3387469,-0.005817059,0.349215,0.04628121,0.9703288,-0.1880782,-8.84754,-36.71783,-8.552786,1008.277
3.322072029,-0.5857871,0.1145837,0.1660188,0.04232961,0.9771282,-0.1875103,-8.84754,-36.71783,-8.552786,1008.277
3.327099323,-0.3387469,-0.1864181,0.1660188,0.04190928,0.9713019,-0.1918944,-8.84754,-36.71783,-8.552786,1008.277
3.332121372,-0.1534667,0.1145837,0.2270842,0.04185987,0.9756948,-0.1923173,-8.84754,-36.71783,-8.552786,1008.277
3.337146282,-0.09155207,0.1747499,0.2269799,0.0438172,0.9741817,-0.1832386,-8.84754,-36.71783,-8.552786,1008.277
3.342171669,-0.2149759,-0.005866434,0.1657527,0.04237477,0.9731998,-0.1837292,-8.84754,-36.71783,-8.552786,1008.277
3.347196102,-0.2148214,-0.06606311,0.1656678,0.04526725,0.9742507,-0.1918588,-8.84754,-36.71783,-8.552786,1008.277
3.352220535,-0.5234091,-0.06604052,0.1655637,0.04381121,0.9746793,-0.184669,-8.84754,-36.71783,-8.552786,1008.277
3.357248783,-0.5230997,-0.1261427,0.1654789,0.04527482,0.9737234,-0.1861187,-8.166805,-36.71132,-8.549017,1008.277
3.362269878,-0.4610304,-0.005719423,0.1653557,0.03948002,0.972192,-0.1818247,-8.166805,-36.71132,-8.549017,1008.277
3.367294788,-0.3989807,-0.06593511,0.1041865,0.0418842,0.9736977,-0.1856382,-8.166805,-36.71132,-8.549017,1008.277
3.372320652,-0.2751906,0.1748888,0.1651672,0.04339053,0.9688596,-0.1900108,-8.166805,-36.71132,-8.549017,1008.277
3.377343654,-0.1515558,0.2349415,0.1650827,0.04289449,0.9698451,-0.1919136,-8.166805,-36.71132,-8.549017,1008.277
3.382368564,-0.08970054,0.1143932,0.1039327,0.04334851,0.9727284,-0.1851725,-8.166805,-36.71132,-8.549017,1008.277
3.387392998,-0.2748855,-0.06629867,0.1648945,0.04137,0.9761794,-0.1923109,-8.166805,-36.71132,-8.549017,1008.277
3.392417908,-0.3364535,0.1142684,0.04269846,0.03801872,0.9727196,-0.1890007,-8.166805,-36.71132,-8.549017,1008.277
3.397442341,-0.5214447,0.2345784,0.1647832,0.04426755,0.9771345,-0.1865536,-8.166805,-36.71132,-8.549017,1008.277
3.402472496,-0.2740769,-0.06645726,0.1646989,0.04723994,0.9712942,-0.185672,-8.166805,-36.71132,-8.549017,1008.277
3.407491684,-0.08866336,0.0539663,0.2867454,0.0428523,0.9737173,-0.1875541,-8.846239,-36.71825,-9.007504,1008.277
3.412516117,0.09663367,-0.06646833,0.1033691,0.04286411,0.9727252,-0.1851722,-8.846239,-36.71825,-9.007504,1008.277
3.417541027,-0.02692772,-0.06642657,0.1643312,0.04240584,0.9703065,-0.1885551,-8.846239,-36.71825,-9.007504,1008.277
3.422565460,-0.1504309,-0.2469859,0.1032201,0.03992914,0.9751679,-0.1884917,-8.846239,-36.71825,-9.007504,1008.277
3.427590370,-0.3355777,0.05415213,0.1642015,0.03702979,0.9746312,-0.1841867,-8.846239,-36.71825,-9.007504,1008.277
3.432615280,-0.4589646,0.1745188,-0.08014409,0.04092053,0.9732101,-0.1866016,-8.846239,-36.71825,-9.007504,1008.277
3.435127258,-0.1500202,0.174464,-0.2633151,0.04440292,0.9649674,-0.1905399,-8.846239,-36.71825,-9.007504,1008.277
3.440152168,-0.1499259,-0.06642812,0.1031659,0.04185738,0.9761265,-0.1841705,-8.846239,-36.71825,-9.007504,1008.277
3.445176601,0.1588521,-0.1265678,-0.2632337,0.04141412,0.9722708,-0.1914029,-8.846239,-36.71825,-9.007504,1008.277
3.450201511,0.09705043,-0.06628796,-0.0188451,0.04381318,0.9742576,-0.1942524,-8.846239,-36.71825,-9.007504,1008.277
3.455225944,0.1587301,-0.006083783,0.1643437,0.04529123,0.9722601,-0.1861374,-8.172649,-36.03295,-8.547128,1008.277
3.460250854,-0.1500534,-0.1866999,-0.1410289,0.04144694,0.9693444,-0.1914402,-8.172649,-36.03295,-8.547128,1008.279
3.465275764,-0.08823793,0.1745628,-0.2020249,0.04575922,0.9737266,-0.186119,-8.172649,-36.03295,-8.547128,1008.279
3.470295906,-0.3352227,-0.006053425,0.04226768,0.04478035,0.9746791,-0.1837118,-8.172649,-36.03295,-8.547128,1008.279
3.475326061,-0.3967527,-0.006049626,-0.0187859,0.04138816,0.9746831,-0.1875409,-8.172649,-36.03295,-8.547128,1008.279
3.480345726,-0.3965229,-0.006102562,-0.07983949,0.04187716,0.9742151,-0.1899417,-8.172649,-36.03295,-8.547128,1008.279
3.485370636,-0.1492918,-0.1264995,0.1033493,0.0438232,0.9736841,-0.1818083,-8.172649,-36.03295,-8.547128,1008.279
3.490395069,-0.08745737,-0.3070399,-0.01880806,0.04670951,0.9752358,-0.1918471,-8.172649,-36.03295,-8.547128,1008.279
3.495419502,-0.02568118,-0.2467413,0.04236507,0.04572075,0.9771441,-0.1865543,-8.172649,-36.03295,-8.547128,1008.279
3.500444412,-0.3343877,-0.1863859,-0.1409153,0.04576451,0.9732421,-0.1866041,-8.172649,-36.03295,-8.547128,1008.281
3.505468845,-0.4576589,-0.1260874,-0.01873433,0.04471721,0.9801004,-0.191784,-8.168692,-36.34172,-9.002705,1008.281
3.510493755,-0.5191314,0.1147554,-0.01872256,0.04381668,0.9741915,-0.1846752,-8.168692,-36.34172,-9.002705,1008.281
3.515518188,-0.642306,0.1146455,-0.01867243,0.04771131,0.9723125,-0.1914061,-8.168692,-36.34172,-9.002705,1008.281
3.520543098,-0.5183824,0.05439206,-0.07974528,0.04869861,0.970816,-0.1856789,-8.168692,-36.34172,-9.002705,1008.281
3.525567531,-0.579778,0.1145393,0.1034626,0.04436003,0.9688528,-0.1880959,-8.168692,-36.34172,-9.002705,1008.281
3.530591965,-0.7029726,0.05432376,0.22549,0.04576207,0.9732883,-0.1933081,-8.168692,-36.34172,-9.002705,1008.281
3.535616875,-0.5790109,-0.1263304,0.4085638,0.03802879,0.9717607,-0.1914074,-8.168692,-36.34172,-9.002705,1008.281
3.540641308,-0.5169066,-0.06608846,0.2251301,0.04240427,0.9703361,-0.1928648,-8.168692,-36.34172,-9.002705,1008.281
3.545666695,-0.3314181,-0.06608477,0.2860733,0.0428807,0.9712588,-0.184712,-8.168692,-36.34172,-9.002705,1008.281
3.550691128,-0.02252605,-0.1262058,0.0417087,0.04567116,0.9815403,-0.1874561,-8.850727,-36.34781,-8.551755,1008.281
3.555716038,-0.02247309,-0.06592614,0.0416825,0.04090714,0.9742318,-0.1932932,-8.850727,-36.34781,-8.551755,1008.281
3.560740471,-0.08425783,0.1748789,0.04167549,0.04331551,0.9756582,-0.185614,-8.850727,-36.34781,-8.551755,1008.281
3.565765381,-0.269485,0.1747879,-0.2636585,0.04286622,0.9726856,-0.1794259,-8.850727,-36.34781,-8.551755,1008.281
3.570789814,-0.2075557,0.05427742,-0.1413621,0.04676189,0.9707868,-0.1832836,-8.850727,-36.34781,-8.551755,1008.281
3.575814724,-0.6397457,0.294988,-0.08024622,0.04766911,0.9761847,-0.1870466,-8.850727,-36.34781,-8.551755,1008.281
3.580843925,-0.1453604,0.2345834,-0.01914959,0.04185173,0.9766175,-0.1846431,-8.850727,-36.34781,-8.551755,1008.281
3.585863590,-0.392251,0.5955625,0.04192783,0.04820257,0.9718015,-0.1875817,-8.850727,-36.34781,-8.551755,1008.281
3.590888500,-0.330264,0.6553699,0.1029669,0.04237692,0.9727748,-0.1928337,-8.850727,-36.34781,-8.551755,1008.281
3.595912933,-0.2682382,0.654996,0.1639484,0.04145946,0.9683392,-0.1871429,-8.850727,-36.34781,-8.551755,1008.281
3.600937843,-0.2680891,0.3536583,0.1638454,0.04001138,0.9678485,-0.1881061,-8.172649,-36.03295,-8.547128,1008.281
3.605962276,-0.02088051,0.2932358,0.04159251,0.03855661,0.9678686,-0.1924151,-8.172649,-36.03295,-8.547128,1008.281
3.610987186,0.1026527,-0.1884567,0.1026126,0.03705365,0.9722586,-0.193795,-8.172649,-36.03295,-8.547128,1008.281
3.616011619,0.16429,-0.2485198,0.1025481,0.03754067,0.9722123,-0.1866123,-8.172649,-36.03295,-8.547128,1008.281
3.621037006,0.4729095,-0.3085262,0.04141831,0.03757244,0.9693056,-0.1895228,-8.172649,-36.03295,-8.547128,1008.281
3.626060963,0.4108717,-0.6694778,-0.01961555,0.04092985,0.9726497,-0.1760729,-8.172649,-36.03295,-8.547128,1008.282
3.631086349,0.4105942,-0.3079118,-0.141734,0.0447899,0.9737301,-0.1875551,-8.172649,-36.03295,-8.547128,1008.282
3.636110306,0.2251143,-0.1873176,-0.202672,0.04431836,0.972715,-0.1822998,-8.172649,-36.03295,-8.547128,1008.282
3.641135216,-0.02202847,-0.006617777,-0.3246371,0.044726,0.9795499,-0.1826919,-8.172649,-36.03295,-8.547128,1008.282
3.646160126,0.03974542,0.1137871,-0.324414,0.0505889,0.9751822,-0.1803565,-8.172649,-36.03295,-8.547128,1008.282
3.651184559,0.2867606,0.1738971,-0.263164,0.04964129,0.973238,-0.1822963,-8.47493,-36.71471,-9.005448,1008.282
3.656209469,0.1013586,0.1738067,-0.3851102,0.04772841,0.970836,-0.1895093,-8.47493,-36.71471,-9.005448,1008.282
3.661233902,0.5335764,0.3542419,-0.1406835,0.04288088,0.9712555,-0.1842332,-8.47493,-36.71471,-9.005448,1008.282
3.666258812,0.4097793,0.3540004,-0.01848348,0.04187943,0.9741722,-0.1837165,-8.47493,-36.71471,-9.005448,1008.284
3.671282768,0.7182639,-0.007329557,0.04261271,0.03756308,0.9702513,-0.1852006,-8.47493,-36.71471,-9.005448,1008.284
3.676303863,0.5942926,0.05285649,-0.3237681,0.04234689,0.9756485,-0.1851347,-8.47493,-36.71471,-9.005448,1008.284
3.681328297,0.5321591,-0.007377069,-0.2014339,0.03946238,0.9736784,-0.1851581,-8.47493,-36.71471,-9.005448,1008.284
3.686353207,0.4700454,-0.2481739,-0.01809195,0.04332029,0.9751837,-0.1875357,-8.47493,-36.71471,-9.005448,1008.284
3.691377640,0.2227294,-0.3082372,-0.4454616,0.04137175,0.9761463,-0.1875223,-8.47493,-36.71471,-9.005448,1008.284
3.696402550,0.09904993,-0.1274804,-0.3231085,0.04286429,0.9727219,-0.1846934,-8.47493,-36.71471,-9.005448,1008.284
3.701426983,0.0989683,-0.3681639,-0.261821,0.04428874,0.9751967,-0.1884939,-8.478117,-36.34468,-9.004417,1008.284
3.706451416,0.1606662,-0.3077322,-0.1395449,0.04676119,0.9707999,-0.1851991,-8.478117,-36.34468,-9.004417,1008.286
3.711476326,0.03706454,-0.3677582,-0.2005226,0.04624554,0.9736935,-0.1808518,-8.478117,-36.34468,-9.004417,1008.286
3.716506481,0.2223214,-0.2471075,-0.3225082,0.04528349,0.9727907,-0.1923563,-8.478117,-36.34468,-9.004417,1008.286
3.721525669,-0.0865797,-0.3070959,-0.07808242,0.04966776,0.9708158,-0.1847217,-8.478117,-36.34468,-9.004417,1008.286
3.726550102,0.2221779,-0.005957898,-0.200145,0.0472304,0.9722432,-0.1818286,-8.478117,-36.34468,-9.004417,1008.286
3.731575489,-0.02492423,-0.005935244,-0.138973,0.0448056,0.9722801,-0.1894892,-8.478117,-36.34468,-9.004417,1008.286
3.736599922,0.09859212,-0.06611297,-0.07787789,0.04043915,0.9727654,-0.1933116,-8.478117,-36.34468,-9.004417,1008.286
3.741624832,0.09856898,0.05425364,-0.1999406,0.04625456,0.9727542,-0.1861317,-8.478117,-36.34468,-9.004417,1008.286
3.746649265,0.2837678,0.1745825,-0.1387112,0.0394377,0.9756821,-0.192795,-8.478117,-36.34468,-9.004417,1008.286
3.751674175,0.0983288,0.2948735,-0.1385665,0.04524606,0.9761884,-0.1899185,-8.476231,-36.71428,-8.55073,1008.286
3.756698608,0.1600465,-0.1266575,-0.138537,0.04141179,0.9726992,-0.1827772,-8.476231,-36.71428,-8.55073,1008.286
3.761723041,-0.3340762,0.2346053,-0.1994962,0.04137175,0.9761463,-0.1875223,-8.476231,-36.71428,-8.55073,1008.286
3.766747951,-0.2104433,-0.1266686,-0.01623221,0.04862645,0.9771764,-0.1884712,-8.476231,-36.71428,-8.55073,1008.286
3.771772385,-0.2720517,0.05391748,-0.01626039,0.04576294,0.9732718,-0.1909138,-8.476231,-36.71428,-8.55073,1008.286
3.776800632,-0.5188434,0.0538647,0.04479605,0.04239083,0.9717433,-0.1847056,-8.476231,-36.71428,-8.55073,1008.286
3.781821728,-0.3950168,-0.06655094,-0.07738207,0.04190486,0.9717698,-0.189015,-8.476231,-36.71428,-8.55073,1008.286
3.786846638,-0.2095661,0.05385376,-0.07735264,0.04581869,0.9683746,-0.1881028,-8.476231,-36.71428,-8.55073,1008.284
3.791871071,-0.08591433,0.1140014,-0.01620028,0.04483506,0.9698017,-0.1837739,-8.476231,-36.71428,-8.55073,1008.284
3.796895504,0.1611216,0.3546934,-0.1383593,0.04579716,0.970319,-0.1871202,-8.476231,-36.71428,-8.55073,1008.284
3.801920414,0.09924096,0.4748902,0.04490466,0.04723005,0.9722499,-0.1827863,-8.476231,-36.71428,-8.55073,1008.284
3.806944847,0.03743796,0.2939908,-0.1383006,0.05543713,0.9747495,-0.1837172,-8.476231,-36.71428,-8.55073,1008.284
3.811969757,-0.1478075,1.076354,0.1060479,0.04674246,0.9726915,-0.1765547,-8.476231,-36.71428,-8.55073,1008.284
3.816994190,-0.3947549,1.015477,0.04493508,0.04575003,0.974669,-0.1813179,-8.476231,-36.71428,-8.55073,1008.284
3.822019577,-0.3327274,1.075021,-0.1382318,0.0447537,0.9771047,-0.1817652,-8.476231,-36.71428,-8.55073,1008.284
3.827044010,-0.4560385,1.014089,0.3503015,0.04672325,0.9742075,-0.1841978,-8.476231,-36.71428,-8.55073,1008.286
3.832068920,-0.08524989,0.8930696,0.1058198,0.04147057,0.9673605,-0.1866765,-8.476231,-36.71428,-8.55073,1008.286
3.837093353,-0.3938802,0.8323082,0.1668571,0.04185068,0.9766373,-0.1875163,-8.476231,-36.71428,-8.55073,1008.286
3.842118263,-0.3936327,0.5910217,-0.07747092,0.04187186,0.9746996,-0.1894566,-8.476231,-36.71428,-8.55073,1008.286
3.847142696,-0.3934048,0.3498868,0.227828,0.03900993,0.9707652,-0.1875894,-8.47493,-36.71471,-9.005448,1008.286
3.852167129,-0.3931965,0.169047,0.1666386,0.04093624,0.9717601,-0.1885357,-8.47493,-36.71471,-9.005448,1008.286
3.857192039,-0.2694682,0.1689787,0.04444154,0.03952133,0.9683363,-0.1885785,-8.47493,-36.71471,-9.005448,1008.286
3.862216473,-0.2075583,0.2892922,0.04447117,0.04434396,0.9703094,-0.1871195,-8.47493,-36.71471,-9.005448,1008.286
3.867243767,-0.08398539,0.1085093,-0.138753,0.03748684,0.9770731,-0.1841559,-8.47493,-36.71471,-9.005448,1008.286
3.872262001,-0.08391323,-0.01197847,-0.1386658,0.04235906,0.9746499,-0.1817951,-8.47493,-36.71471,-9.005448,1008.286
3.877286434,-0.2691213,0.2889552,-0.1385787,0.04045219,0.9717503,-0.1875777,-8.47493,-36.71471,-9.005448,1008.286
3.882311344,-0.3924335,0.3490119,-0.1385108,0.047691,0.9742337,-0.1870715,-8.47493,-36.71471,-9.005448,1008.286
3.887335777,-0.2686669,0.1682104,-0.2605354,0.04863121,0.9767019,-0.1903929,-8.47493,-36.71471,-9.005448,1008.286
3.892360210,-0.1450168,0.5292124,-0.2604101,0.04576504,0.9732322,-0.1851675,-8.47493,-36.71471,-9.005448,1008.286
3.897385120,-0.08312682,0.5891559,-0.1992195,0.04478373,0.974231,-0.1894643,-8.852083,-36.03988,-9.005614,1008.286
3.902409554,-0.2065365,1.010113,-0.2601597,0.04096039,0.9697662,-0.1823354,-8.852083,-36.03988,-9.005614,1008.286
3.907434940,-0.1446661,0.7085708,-0.2599387,0.0408884,0.9761233,-0.1846489,-8.852083,-36.03988,-9.005614,1008.286
3.912459373,-0.329836,0.8285075,-0.01559057,0.0457797,0.971802,-0.1899747,-8.852083,-36.03988,-9.005614,1008.286
3.917484283,-0.2678493,0.6473481,-0.07662699,0.04526952,0.9742078,-0.1856337,-8.852083,-36.03988,-9.005614,1008.286
3.922508717,-0.08243968,0.6469225,-0.01547509,0.03800866,0.9736787,-0.1865939,-8.852083,-36.03988,-9.005614,1008.286
3.927535534,-0.1441285,0.7067165,-0.2597269,0.04144886,0.9693081,-0.1861727,-8.852083,-36.03988,-9.005614,1008.286
3.932558060,-0.08231676,0.4655278,-0.07638677,0.03751472,0.9746245,-0.1827503,-8.852083,-36.03988,-9.005614,1008.286
3.937582970,0.1030151,0.3448725,-0.1984312,0.04091575,0.9736847,-0.1846799,-8.852083,-36.03988,-9.005614,1008.286
3.942607403,0.2264123,0.4048751,-0.1372412,0.03854299,0.969279,-0.1847347,-8.852083,-36.03988,-9.005614,1008.286
3.945119858,0.102821,0.4047479,-0.3814596,0.03802647,0.9721891,-0.1827817,-8.853384,-36.03946,-8.550896,1008.286
3.950144768,-0.1442837,0.1637678,-0.3812008,0.04476784,0.9756843,-0.1880091,-8.853384,-36.03946,-8.550896,1008.284
3.955169201,-0.3912139,0.2238464,-0.2588497,0.04715718,0.9786234,-0.1874941,-8.853384,-36.03946,-8.550896,1008.284
3.960194111,-0.4526893,0.1635243,-0.1976025,0.04288425,0.9708073,-0.1899857,-8.853384,-36.03946,-8.550896,1008.284
3.965218544,-0.3289237,0.4041852,-0.136413,0.04479112,0.973707,-0.1842031,-8.853384,-36.03946,-8.550896,1008.284
3.970242977,0.04174623,0.403988,-0.1973735,0.04533959,0.9678869,-0.1885877,-8.853384,-36.03946,-8.550896,1008.284
3.975267887,0.2888184,0.1629895,-0.1972687,0.04087251,0.9775766,-0.1831936,-8.853384,-36.03946,-8.550896,1008.284
3.980292320,0.2268769,0.3434315,-0.2582677,0.04675996,0.970823,-0.1885511,-8.853384,-36.03946,-8.550896,1008.284
3.985317230,0.1032143,0.1626525,-0.1970401,0.04092193,0.9731837,-0.1827707,-8.853384,-36.03946,-8.550896,1008.284
3.990341663,0.2883908,0.1023688,-0.1358701,0.0432714,0.9795668,-0.186522,-8.853384,-36.03946,-8.550896,1008.282
3.995367527,0.04120824,0.1023234,-0.2578963,0.04570963,0.9781228,-0.1870207,-8.850727,-36.34781,-8.551755,1008.282
4.000391006,-0.02059709,0.04203989,-0.1355843,0.04191755,0.9707614,-0.1842389,-8.850727,-36.34781,-8.551755,1008.282
4.005415440,-0.02058416,-0.07838724,-0.1354991,0.0447555,0.9766862,-0.1918275,-8.850727,-36.34781,-8.551755,1008.282
4.010440350,0.04116942,0.04200599,-0.135414,0.04139363,0.9741954,-0.1875471,-8.850727,-36.34781,-8.551755,1008.282
4.015467644,0.04116296,0.04199851,-0.1353289,0.04528931,0.9722964,-0.1914048,-8.850727,-36.34781,-8.551755,1008.282
4.020489693,0.2264172,-0.01817149,-0.1963285,0.04089177,0.9756752,-0.1904014,-8.850727,-36.34781,-8.551755,1008.282
4.025514126,-0.08252524,-0.01812225,-0.2572898,0.04433937,0.9707806,-0.184719,-8.850727,-36.34781,-8.551755,1008.282
4.030538559,0.1644892,-0.01811086,-0.1350357,0.04434344,0.9703193,-0.1885561,-8.850727,-36.34781,-8.551755,1008.282
4.035563946,0.04088516,0.1624638,-0.1349317,0.04479042,0.9737202,-0.1861185,-8.850727,-36.34781,-8.551755,1008.282
4.040588856,-0.08266062,0.2225242,-0.1348469,0.04482819,0.9703159,-0.1875986,-8.850727,-36.34781,-8.551755,1008.282
4.045613289,0.2261721,0.1622219,-0.134743,0.04524484,0.9762115,-0.1932705,-8.849426,-36.34823,-9.006474,1008.282
4.050638199,0.4730314,0.2222825,0.04849945,0.0419488,0.9678646,-0.1885859,-8.849426,-36.34823,-9.006474,1008.282
4.055662632,0.6579756,0.2822865,-0.1346888,0.04671038,0.9752193,-0.1894528,-8.849426,-36.34823,-9.006474,1008.282
4.060687065,0.348859,0.1015837,-0.0125118,0.04235289,0.9751508,-0.1837043,-8.849426,-36.34823,-9.006474,1008.282
4.065711975,0.03987843,0.04128174,-0.07355015,0.04329573,0.9775695,-0.1798428,-8.849426,-36.34823,-9.006474,1008.282
4.070740700,-0.02188727,0.2820194,0.04862684,0.04382127,0.9737204,-0.1870757,-8.849426,-36.34823,-9.006474,1008.281
4.075757027,-0.3306156,-0.1394468,0.04863466,0.04624769,0.9732684,-0.1899563,-8.849426,-36.34823,-9.006474,1008.281
4.080781937,-0.08342586,-0.01903412,-0.2567037,0.04479589,0.9732324,-0.1861247,-8.849426,-36.34823,-9.006474,1008.281
4.085806370,-0.08335405,-0.07926035,-0.1955346,0.04723255,0.9718182,-0.1909332,-8.849426,-36.34823,-9.006474,1008.281
4.090831280,-0.02156103,0.1013716,-0.1343655,0.04383344,0.9727217,-0.1837361,-8.849426,-36.34823,-9.006474,1008.281
4.095855713,0.04019315,0.2216897,-0.1953657,0.04818756,0.9732383,-0.1837321,-8.853329,-36.34695,-7.642318,1008.281
4.100880146,0.2254092,0.2817886,-0.1342159,0.04627062,0.9712977,-0.1871081,-8.853329,-36.34695,-7.642318,1008.281
4.105905056,0.2252676,0.2214302,-0.01200083,0.04628191,0.9703156,-0.1861627,-8.853329,-36.34695,-7.642318,1008.281
4.110930443,0.348685,0.161034,-0.07303949,0.04765957,0.9771338,-0.1832033,-8.853329,-36.34695,-7.642318,1008.281
4.115954399,-0.08385438,0.341515,-0.3172936,0.04329753,0.9771512,-0.1899051,-8.853329,-36.34695,-7.642318,1008.279
4.120979309,0.1631609,0.1005179,-0.07283264,0.04722353,0.9727573,-0.1856533,-8.853329,-36.34695,-7.642318,1008.279
4.126004219,0.03957709,0.2208366,-0.3780947,0.04287418,0.9717663,-0.187579,-8.853329,-36.34695,-7.642318,1008.279
4.131028652,-0.1456891,0.2207167,-0.1337299,0.0452328,0.9775922,-0.1812804,-8.853329,-36.34695,-7.642318,1008.279
4.136053562,0.101365,0.1001774,-0.3778882,0.04478053,0.9746758,-0.1832329,-8.853329,-36.34695,-7.642318,1008.279
4.141077995,-0.02217997,0.1602581,-0.07232387,0.04237355,0.973223,-0.1870812,-8.478117,-36.34468,-9.004417,1008.279
4.146102905,0.2248547,0.2203956,-0.133363,0.04388867,0.9678344,-0.1823617,-8.478117,-36.34468,-9.004417,1008.279
4.151127338,0.2864541,0.1600756,-0.01105252,0.04628546,0.9698641,-0.1914364,-8.478117,-36.34468,-9.004417,1008.279
4.156151772,0.3480148,0.03961219,-0.2553263,0.04234974,0.9752102,-0.1923238,-8.478117,-36.34468,-9.004417,1008.279
4.161176682,0.3477573,0.1598935,-0.01096191,0.04285882,0.9732097,-0.1846871,-8.478117,-36.34468,-9.004417,1008.279
4.166201115,0.2857789,0.2200312,0.172222,0.04191016,0.9712854,-0.1895001,-8.478117,-36.34468,-9.004417,1008.279
4.171226025,0.1620598,0.2199119,-0.0721478,0.04625491,0.9727476,-0.1851739,-8.478117,-36.34468,-9.004417,1008.279
4.176250458,0.100198,0.2198116,0.1721975,0.04187873,0.9741854,-0.1856319,-8.478117,-36.34468,-9.004417,1008.279
4.181274891,0.03843321,0.03911021,0.04993932,0.04623902,0.974201,-0.1837187,-8.478117,-36.34468,-9.004417,1008.279
4.186299801,-0.2703718,-0.02113362,0.0499655,0.0438495,0.9712651,-0.1847125,-8.478117,-36.34468,-9.004417,1008.279
4.191324234,0.03854011,0.1594618,-0.07221586,0.04332593,0.9746926,-0.1870631,-8.479475,-36.03675,-9.458278,1008.279
4.196349144,0.162036,0.2195431,0.1720144,0.04529722,0.9717625,-0.184707,-8.479475,-36.03675,-9.458278,1008.281
4.201373577,0.1001741,0.159167,-0.2555131,0.04423066,0.9805222,-0.1826792,-8.479475,-36.03675,-9.458278,1008.281
4.206398964,0.1619489,-0.02157191,-0.0721564,0.04771747,0.9718115,-0.1894969,-8.479475,-36.03675,-9.458278,1008.281
4.211423397,0.03830763,0.1590616,0.05000054,0.04528239,0.973196,-0.1803786,-8.479475,-36.03675,-9.458278,1008.281
4.216448307,0.1000242,0.3395061,0.1110153,0.0438165,0.9741948,-0.1851541,-8.479475,-36.03675,-9.458278,1008.281
4.221472740,0.4087034,0.09854805,-0.1943238,0.0462595,0.9722764,-0.1875745,-8.479475,-36.03675,-9.458278,1008.281
4.226497650,0.4084272,0.1586487,-0.01106311,0.04483116,0.9702598,-0.179458,-8.479475,-36.03675,-9.458278,1008.281
4.231522083,0.5934314,0.03822394,-0.2552602,0.04379921,0.9756746,-0.1875297,-8.479475,-36.03675,-9.458278,1008.281
4.236546516,0.2225565,0.4595079,-0.07192283,0.04814786,0.9766789,-0.1875195,-8.479475,-36.03675,-9.458278,1008.279
4.241571426,0.2841961,0.278656,-0.1329239,0.04425679,0.9781066,-0.1860623,-8.482075,-36.0359,-8.548841,1008.279
4.246595859,0.1604975,0.3988438,0.05033665,0.04335276,0.9722639,-0.1885307,-8.482075,-36.0359,-8.548841,1008.279
4.251620769,0.1603773,0.3384496,-0.01077955,0.04429526,0.9746891,-0.185627,-8.482075,-36.0359,-8.548841,1008.279
4.256645202,0.4072973,0.2780367,-0.01077278,0.04234619,0.9756617,-0.1870501,-8.482075,-36.0359,-8.548841,1008.279
4.261670112,0.09829944,0.3380812,-0.07183141,0.0496173,0.9752286,-0.1880177,-8.482075,-36.0359,-8.548841,1008.279
4.266694546,0.1599977,0.1572867,-0.01072089,0.04626515,0.9717854,-0.1871018,-8.482075,-36.0359,-8.548841,1008.279
4.271718979,0.2215991,0.217445,-0.01073334,0.04141232,0.9726892,-0.1813406,-8.482075,-36.0359,-8.548841,1008.279
4.276739597,0.40674,0.03666947,-0.07181116,0.04088223,0.9766243,-0.1865581,-8.482075,-36.0359,-8.548841,1008.277
4.281764507,0.3447244,0.03668426,0.05034555,0.0442785,0.976159,-0.186566,-8.482075,-36.0359,-8.548841,1008.277
4.286788940,0.03572702,0.03669903,-0.01077066,0.04187943,0.9741722,-0.1837165,-8.482075,-36.0359,-8.548841,1008.277
4.291814327,0.1591665,-0.02354329,-0.1328563,0.04813426,0.9780893,-0.1798391,-8.471741,-37.08473,-9.006479,1008.277
4.296838760,0.09736463,0.0968533,-0.07170745,0.0457871,0.971278,-0.1847135,-8.471741,-37.08473,-9.006479,1008.277
4.301863670,-0.02621661,0.3375372,-0.1938124,0.04773669,0.9702955,-0.1818538,-8.471741,-37.08473,-9.006479,1008.277
4.306888103,-0.0879602,0.2771058,-0.1326444,0.04715893,0.9785905,-0.1827055,-8.471741,-37.08473,-9.006479,1008.277
4.311914444,-0.08792434,0.3371132,-0.01044948,0.04427902,0.976149,-0.1851294,-8.471741,-37.08473,-9.006479,1008.277
4.316937446,-0.02608965,0.2766821,0.05060331,0.04524799,0.9761521,-0.1846511,-8.471741,-37.08473,-9.006479,1008.279
4.321962356,-0.1496322,0.3968712,-0.1326055,0.04333775,0.9737007,-0.1846812,-8.471741,-37.08473,-9.006479,1008.279
4.326986790,-0.02603748,0.3364405,-0.07149515,0.04186709,0.9751741,-0.1875349,-8.471741,-37.08473,-9.006479,1008.279
4.332011223,0.09747957,0.2158473,-0.07143105,0.04431114,0.9732358,-0.1870822,-8.471741,-37.08473,-9.006479,1008.279
4.337036133,0.1591784,0.215655,0.0507638,0.04483401,0.9698216,-0.1866471,-8.47493,-36.71471,-9.005448,1008.279
4.342060566,0.2825985,0.0349373,0.05077028,0.04339245,0.9688233,-0.1847433,-8.47493,-36.71471,-9.005448,1008.279
4.347085476,0.03545835,0.2154786,0.1117654,0.03894463,0.9766116,-0.1865571,-8.47493,-36.71471,-9.005448,1008.279
4.352109909,0.09717672,0.2153622,0.05061062,0.04483611,0.9697819,-0.1809008,-8.47493,-36.71471,-9.005448,1008.279
4.357134819,-0.08818387,0.3958469,-0.01052494,0.04478565,0.9741947,-0.1841968,-8.47493,-36.71471,-9.005448,1008.277
4.362159252,0.03539162,0.09461529,0.05052789,0.04522628,0.9780998,-0.1841473,-8.47493,-36.71471,-9.005448,1008.277
4.367183685,0.03536939,0.3353195,-0.07159628,0.043369,0.9708039,-0.1890282,-8.47493,-36.71471,-9.005448,1008.277
4.372208595,0.1588285,0.1545645,-0.0715513,0.04332256,0.9751408,-0.1813105,-8.47493,-36.71471,-9.005448,1008.277
4.377233982,-0.2117734,0.395231,0.1116515,0.04574281,0.9751897,-0.1861003,-8.47493,-36.71471,-9.005448,1008.277
4.382258415,0.03536103,0.03389401,0.05055429,0.03947879,0.9722151,-0.1851767,-8.47493,-36.71471,-9.005448,1008.277
4.387282848,0.09709886,0.2746363,-0.1326545,0.04527057,0.974188,-0.1827605,-8.169992,-36.3413,-8.547986,1008.277
4.392307758,-0.2734254,0.03368127,-0.1936941,0.04481883,0.9712617,-0.1832764,-8.169992,-36.3413,-8.547986,1008.277
4.397332191,-0.02627166,0.2142045,-0.01041459,0.04331551,0.9756582,-0.185614,-8.169992,-36.3413,-8.547986,1008.277
4.402357101,-0.2114965,0.5150149,-0.1936042,0.04626003,0.9722666,-0.1861379,-8.169992,-36.3413,-8.547986,1008.277
4.407381534,-0.1496036,0.2739278,-0.01030561,0.04047372,0.969806,-0.1885603,-8.169992,-36.3413,-8.547986,1008.277
4.412406444,-0.08776895,0.3941186,-0.1934378,0.04331534,0.9756615,-0.1860929,-8.169992,-36.3413,-8.547986,1008.277
4.417430878,-0.08773321,0.3938521,-0.01010088,0.04237425,0.9732097,-0.1851658,-8.169992,-36.3413,-8.547986,1008.277
4.422455311,-0.2111788,0.5742057,0.05095168,0.04285794,0.9732262,-0.1870815,-8.169992,-36.3413,-8.547986,1008.277
4.427480221,-0.02580478,-0.02806401,-0.07113437,0.04384863,0.9712816,-0.1871068,-8.169992,-36.3413,-8.547986,1008.277
4.432504654,-0.1493281,-0.08826566,0.05096436,0.04089882,0.9751577,-0.1860979,-8.169992,-36.3413,-8.547986,1008.277
4.437529564,-0.2727932,0.0321716,-0.1322063,0.0389547,0.9756525,-0.1889638,-8.853384,-36.03946,-8.550896,1008.277
4.442553997,-0.2108811,-0.02810571,-0.3152619,0.05013469,0.972302,-0.1875764,-8.853384,-36.03946,-8.550896,1008.277
4.447578430,-0.3960094,-0.0882695,-0.1929906,0.04477349,0.9751933,-0.1875364,-8.853384,-36.03946,-8.550896,1008.277
4.450091362,-0.457645,-0.08824177,-0.2539953,0.04377908,0.9775925,-0.1827162,-8.853384,-36.03946,-8.550896,1008.277
4.455115795,-0.08693306,-0.2085681,-0.1317434,0.04958588,0.9781286,-0.1841495,-8.853384,-36.03946,-8.550896,1008.277
4.460140705,-0.2103598,0.0323265,-0.2537914,0.04234584,0.9756683,-0.1880078,-8.853384,-36.03946,-8.550896,1008.277
4.465165138,-0.08676569,-0.02783743,-0.07043576,0.04183497,0.9780873,-0.1855822,-8.853384,-36.03946,-8.550896,1008.277
4.470190048,-0.02493172,0.1527433,-0.2535685,0.04571952,0.9771671,-0.1899063,-8.853384,-36.03946,-8.550896,1008.277
4.475210667,-0.0865985,0.2128666,-0.1923438,0.04476959,0.9756513,-0.1832205,-8.853384,-36.03946,-8.550896,1008.277
4.480235100,-0.2100448,0.09237001,-0.07009219,0.04574263,0.9751931,-0.1865792,-8.853384,-36.03946,-8.550896,1008.277
4.485259533,-0.08641214,0.212656,-0.2532251,0.04522611,0.978103,-0.1846262,-8.47493,-36.71471,-9.005448,1008.277
4.490284443,-0.3333786,0.03195911,-0.2530469,0.04721771,0.9732517,-0.1866048,-8.47493,-36.71471,-9.005448,1008.277
4.495308876,-0.2096685,0.03190121,-0.1918417,0.04768075,0.9751959,-0.1851436,-8.47493,-36.71471,-9.005448,1008.277
4.500333786,-0.2095174,0.2726448,-0.008505844,0.04671231,0.975183,-0.1841854,-8.47493,-36.71471,-9.005448,1008.277
4.505358219,-0.02418323,-0.08863409,-0.1306313,0.03894888,0.9761469,-0.1899153,-8.47493,-36.71471,-9.005448,1008.277
4.510383606,0.0375726,0.03176557,0.2357472,0.0467716,0.9698344,-0.1866481,-8.47493,-36.71471,-9.005448,1008.277
4.515408039,0.09932844,0.2122332,-0.06968947,0.03846181,0.9765786,-0.1822471,-8.47493,-36.71471,-9.005448,1008.277
4.520432949,0.0374866,0.2121377,-0.06966487,0.0423356,0.9766306,-0.1860799,-8.47493,-36.71471,-9.005448,1008.277
4.525457382,0.09924249,-0.02883482,0.05252886,0.04383519,0.9726887,-0.1789475,-8.47493,-36.71471,-9.005448,1008.277
4.530482292,-0.2713607,0.1517655,-0.1306811,0.04863861,0.9761778,-0.1851316,-8.47493,-36.71471,-9.005448,1008.277
4.535506725,-0.3947104,0.1517079,-0.06953365,0.04523495,0.9771672,-0.1903849,-8.169992,-36.3413,-8.547986,1008.277
4.540531158,-0.3326635,0.1515559,-0.06943241,0.04717942,0.9766659,-0.1865613,-8.169992,-36.3413,-8.547986,1008.277
4.545557499,-0.5794559,0.2718803,-0.008304209,0.04772364,0.9713106,-0.1875876,-8.169992,-36.3413,-8.547986,1008.277
4.550580501,-0.5173707,0.2114713,-0.008298993,0.04529105,0.9722635,-0.1866162,-8.169992,-36.3413,-8.547986,1008.277
4.555605411,-0.517065,0.271501,-0.008274592,0.04381563,0.9742113,-0.1875484,-8.169992,-36.3413,-8.547986,1008.277
4.560629845,-0.4550384,0.2713683,-0.06929641,0.04232996,0.9771217,-0.1865526,-8.169992,-36.3413,-8.547986,1008.277
4.565654278,-0.6400715,0.1507593,-0.008206673,0.04094206,0.9712657,-0.1875842,-8.169992,-36.3413,-8.547986,1008.277
4.570679188,-0.2691867,0.0904831,0.05286388,0.04577633,0.9722502,-0.1842222,-8.169992,-36.3413,-8.547986,1008.277
4.575703621,-0.1455363,0.09044518,0.1138577,0.03994625,0.9736915,-0.1865949,-8.169992,-36.3413,-8.547986,1008.277
4.580728531,-0.02192476,0.09042618,0.05273996,0.040404,0.9761202,-0.1846486,-8.169992,-36.3413,-8.547986,1008.277
4.585753918,-0.1454117,0.2107323,0.05270682,0.04382832,0.9732029,-0.1827722,-8.846239,-36.71825,-9.007504,1008.277
4.590777874,-0.0836379,0.1504563,-0.008372501,0.04382337,0.9736807,-0.1813294,-8.846239,-36.71825,-9.007504,1008.277
4.595807552,-0.02176709,0.2707057,-0.191525,0.04820432,0.9717686,-0.1827931,-8.846239,-36.71825,-9.007504,1008.277
4.600827694,-0.5158339,0.45108,-0.008227736,0.04717977,0.9766593,-0.1856036,-8.846239,-36.71825,-9.007504,1008.277
4.605852127,-0.5155292,0.3905963,-0.1303725,0.05014616,0.9713166,-0.1861523,-8.846239,-36.71825,-9.007504,1008.277
4.610877037,-0.5769653,0.570933,0.2360058,0.04384705,0.9713113,-0.1914165,-8.846239,-36.71825,-9.007504,1008.277
4.615901470,-0.5148816,0.3298108,0.2358767,0.0423658,0.9737537,-0.1933002,-8.846239,-36.71825,-9.007504,1008.277
4.620925903,-0.1440367,0.2693843,0.2357285,0.04385607,0.9703721,-0.1966964,-8.846239,-36.71825,-9.007504,1008.277
4.625955582,-0.1439656,0.269234,0.2966075,0.03997873,0.9707716,-0.1875899,-8.846239,-36.71825,-9.007504,1008.277
4.630975246,-0.02043267,-0.0921184,0.296402,0.03904665,0.9673808,-0.1919427,-8.846239,-36.71825,-9.007504,1008.277
4.636000156,0.3500822,-0.3328052,0.357262,0.0390115,0.9707355,-0.1832797,-8.473631,-36.71513,-9.460167,1008.277
4.641024589,0.4115835,-0.6335223,0.2960105,0.04193891,0.9688203,-0.1857003,-8.473631,-36.71513,-9.460167,1008.275
4.646049499,0.4113444,-0.6331243,0.1126859,0.0355316,0.9785467,-0.1874882,-8.473631,-36.71513,-9.460167,1008.275
4.651073933,0.2875465,-0.6326888,0.05162646,0.04134068,0.9790398,-0.1826964,-8.473631,-36.71513,-9.460167,1008.275
4.656098366,0.1638263,-0.5119095,-0.131583,0.04429119,0.9751505,-0.1817899,-8.473631,-36.71513,-9.460167,1008.275
4.661123276,-0.08325856,-0.4514254,-0.1925465,0.04958798,0.978089,-0.1784032,-8.473631,-36.71513,-9.460167,1008.275
4.666147709,-0.02148501,-0.1501967,-0.07031396,0.05109483,0.973241,-0.1813393,-8.473631,-36.71513,-9.460167,1008.275
4.671173096,-0.08321216,-0.02975836,-0.1923238,0.0506819,0.9668906,-0.1804622,-8.473631,-36.71513,-9.460167,1008.275
4.676193237,0.04034081,0.1508236,-0.3143146,0.04669042,0.977134,-0.1841605,-8.473631,-36.71513,-9.460167,1008.275
4.681217670,0.2255762,0.2109292,-0.1309402,0.04432825,0.9717594,-0.1851854,-8.479418,-36.34426,-8.549699,1008.275
4.686243057,0.2254345,0.2107967,-0.1919041,0.04288845,0.9707281,-0.1784931,-8.479418,-36.34426,-8.549699,1008.275
4.691267490,0.4104954,0.09024464,-0.1918219,0.0461732,0.9800572,-0.184123,-8.479418,-36.34426,-8.549699,1008.275
4.696292400,0.2250544,0.1503694,-0.008486062,0.04087816,0.9770856,-0.182721,-8.479418,-36.34426,-8.549699,1008.275
4.701321602,-0.02206898,0.09011239,-0.2527039,0.04720642,0.9742337,-0.1875501,-8.479418,-36.34426,-8.549699,1008.275
4.706341743,0.03966612,-0.03032602,-0.1304336,0.04624891,0.9732453,-0.1866043,-8.479418,-36.34426,-8.549699,1008.275
4.711366177,0.2248631,0.02985556,-0.06932462,0.04333705,0.9737139,-0.1865966,-8.479418,-36.34426,-8.549699,1008.275
4.716390610,0.3482419,-0.03036356,-0.2524197,0.03751262,0.9746641,-0.1884967,-8.479418,-36.34426,-8.549699,1008.275
4.721415520,0.4715433,-0.09052593,-0.1911765,0.04240742,0.9702768,-0.1842454,-8.479418,-36.34426,-8.549699,1008.275
4.726439953,0.2242457,-0.0903745,-0.2521027,0.0408944,0.9756257,-0.1832185,-8.479418,-36.34426,-8.549699,1008.277
4.731464863,0.1623836,-0.0301741,-0.3130289,0.04279247,0.9790758,-0.186528,-8.168692,-36.34172,-9.002705,1008.277
4.736489296,0.1005409,-0.150518,-0.1907206,0.04569974,0.9790785,-0.1841352,-8.168692,-36.34172,-9.002705,1008.277
4.741518021,0.2240172,0.09035905,-0.3126932,0.04235573,0.9747126,-0.1908934,-8.168692,-36.34172,-9.002705,1008.277
4.746538639,-0.2701069,0.03017757,-0.4346084,0.04477436,0.9751768,-0.1851421,-8.168692,-36.34172,-9.002705,1008.277
4.751563072,-0.1464559,0.03015861,-0.4953815,0.04765165,0.9776676,-0.1899011,-8.168692,-36.34172,-9.002705,1008.277
4.756587982,-0.2081434,0.1505782,-0.3729971,0.04676101,0.9708033,-0.1856779,-8.168692,-36.34172,-9.002705,1008.277
4.854569435,-0.02499555,0.5079135,-0.06553329,0.04280517,0.9780673,-0.1817518,-8.47493,-36.71471,-9.005448,1008.277
4.859593868,-0.08675931,0.5075188,0.2397773,0.0404107,0.9756093,-0.1813028,-8.47493,-36.71471,-9.005448,1008.277
4.862106323,-0.08673205,0.447159,0.239702,0.04335823,0.9717761,-0.1885369,-8.47493,-36.71471,-9.005448,1008.277
4.867131233,-0.08669697,0.2061334,0.05631684,0.03950667,0.9697665,-0.1837712,-8.47493,-36.71471,-9.005448,1008.277
4.872155666,0.0369164,0.4467675,0.05628145,0.04384385,0.9717562,-0.1851851,-8.47493,-36.71471,-9.005448,1008.277
4.877176285,0.03691261,0.08537922,-0.2490809,0.04186814,0.9751543,-0.1846618,-8.47493,-36.71471,-9.005448,1008.277
4.882201195,0.09864947,0.2057263,0.1784566,0.03750785,0.9751387,-0.186575,-8.478117,-36.34468,-9.004417,1008.277
4.887225628,-0.1484333,0.265892,-0.06587869,0.04626143,0.9722401,-0.182307,-8.478117,-36.34468,-9.004417,1008.277
4.892250538,0.09862253,0.145381,-0.004810281,0.03950103,0.9702576,-0.1842439,-8.478117,-36.34468,-9.004417,1008.277
4.897274971,0.03685874,0.2656336,-0.06583428,0.04429101,0.9751537,-0.1822687,-8.478117,-36.34468,-9.004417,1008.277
4.902299404,-0.1483863,-0.1558601,-0.2489507,0.04380504,0.9751803,-0.1865782,-8.478117,-36.34468,-9.004417,1008.277
4.907324314,-0.02481183,0.1451828,-0.06567489,0.04383116,0.9727646,-0.1899613,-8.478117,-36.34468,-9.004417,1008.277
4.912348747,-0.2718364,0.02474766,-0.06557608,0.04764211,0.9786168,-0.1860578,-8.478117,-36.34468,-9.004417,1008.277
4.917373657,-0.02468368,-0.03548716,-0.0655157,0.04619753,0.9780599,-0.1774438,-8.478117,-36.34468,-9.004417,1008.277
4.922398090,-0.2716502,0.08486021,-0.06551291,0.0413767,0.9756685,-0.1889651,-8.478117,-36.34468,-9.004417,1008.277
4.927422523,-0.2097195,0.1450262,-0.3707604,0.04965153,0.9722758,-0.1842242,-8.478117,-36.34468,-9.004417,1008.277
4.932447433,-0.3948097,0.3255172,-0.3095004,0.04140563,0.9732001,-0.1846864,-8.478117,-36.34468,-9.004417,1008.277
4.937471867,-0.2710997,0.2651124,-0.1872136,0.04143315,0.9707581,-0.1842386,-8.478117,-36.34468,-9.004417,1008.277
4.942497253,-0.2091694,0.1445829,-0.187096,0.04283799,0.9751409,-0.1817891,-8.478117,-36.34468,-9.004417,1008.277
4.947522163,-0.08551786,0.2047303,-0.248063,0.04724646,0.9707866,-0.182805,-8.478117,-36.34468,-9.004417,1008.277
4.952546597,-0.02368468,0.02405732,-0.4310842,0.04430038,0.974208,-0.1865909,-8.478117,-36.34468,-9.004417,1008.277
4.957575798,-0.0236892,-0.09635852,-0.1866093,0.04480259,0.9727216,-0.1827789,-8.478117,-36.34468,-9.004417,1008.277
4.960083008,-0.02368176,0.02407248,-0.2476161,0.04770316,0.9732351,-0.1837319,-8.478117,-36.34468,-9.004417,1008.277
4.967620373,-0.02369823,-0.09625638,-0.003197931,0.04579699,0.9703223,-0.1875991,-8.478117,-36.34468,-9.004417,1008.277
4.970132351,0.03806925,-0.03602577,-0.06426232,0.04523705,0.9771276,-0.1846386,-8.478117,-36.34468,-9.004417,1008.277
4.975157261,-0.1472348,0.02421613,-0.1252682,0.04425272,0.978568,-0.1822252,-8.478117,-36.34468,-9.004417,1008.277
4.980181694,-0.02360281,-0.03599944,-0.1251703,0.04477419,0.9751801,-0.185621,-8.849426,-36.34823,-9.006474,1008.277
4.985207081,-0.02352978,0.02420462,-0.1861762,0.04287541,0.9717432,-0.1842269,-8.849426,-36.34823,-9.006474,1008.277
4.990231514,-0.08527505,0.08438978,0.05816395,0.04525416,0.9756512,-0.1827418,-8.849426,-36.34823,-9.006474,1008.277
4.995256424,-0.2087416,0.02415531,-0.002880439,0.04288582,0.9707776,-0.185676,-8.849426,-36.34823,-9.006474,1008.277
5.000280857,0.03839095,-0.03609804,-0.0639632,0.04532405,0.9693336,-0.1861747,-8.849426,-36.34823,-9.006474,1008.277
5.005305767,-0.08517266,-0.096219,-0.2470808,0.04425009,0.9786175,-0.1894081,-8.849426,-36.34823,-9.006474,1008.277
5.010330200,0.1000834,-0.03607166,0.1194092,0.04045411,0.971714,-0.1823103,-8.849426,-36.34823,-9.006474,1008.277
5.015354633,-0.1469615,0.08431389,-0.1859544,0.04388425,0.9683024,-0.1794824,-8.849426,-36.34823,-9.006474,1008.277
5.020379543,0.038411,0.2046427,-0.06368764,0.04482836,0.9703126,-0.1871198,-8.849426,-36.34823,-9.006474,1008.277
5.025403976,-0.2086533,0.2045898,-0.124713,0.04192145,0.9703033,-0.1885548,-8.480774,-36.03633,-9.003559,1008.277
5.030428886,-0.2085223,0.2646806,-0.3078501,0.04718559,0.9761649,-0.184652,-8.480774,-36.03633,-9.003559,1008.277
5.035453320,-0.2701319,0.1441514,-0.185545,0.04769135,0.9742271,-0.1861137,-8.480774,-36.03633,-9.003559,1008.277
5.040477753,-0.3317804,0.2042801,-0.1243631,0.04819443,0.9727241,-0.1799075,-8.480774,-36.03633,-9.003559,1008.277
5.045502663,-0.3315914,0.02356961,-0.06323874,0.04524887,0.9761356,-0.1822568,-8.480774,-36.03633,-9.003559,1008.277
5.050528049,-0.3313831,0.2040802,0.1199972,0.04768622,0.9747082,-0.1851498,-8.480774,-36.03633,-9.003559,1008.277
5.055552006,-0.5782151,0.1438084,0.0588564,0.04818244,0.9737195,-0.1827682,-8.480774,-36.03633,-9.003559,1008.277
5.060576439,-0.4543318,0.08357444,-0.002226792,0.04576114,0.9736903,-0.1808515,-8.480774,-36.03633,-9.003559,1008.277
5.065601826,-0.5157676,0.02328375,0.1809516,0.04580968,0.9693138,-0.1828229,-8.480774,-36.03633,-9.003559,1008.277
5.070626259,-0.3919623,-0.09715051,-0.06336609,0.0404633,0.9707716,-0.1871113,-8.480774,-36.03633,-9.003559,1008.277
5.075646877,-0.268196,0.1437309,0.1198123,0.04338134,0.969802,-0.1852098,-8.479475,-36.03675,-9.458278,1008.277
5.080671787,-0.1445462,0.02323986,-0.002393715,0.04043258,0.9736584,-0.1813277,-8.479475,-36.03675,-9.458278,1008.277
5.085696220,-0.02095468,-0.09715655,-0.002411395,0.04432703,0.9717825,-0.1885374,-8.479475,-36.03675,-9.458278,1008.277
5.090721130,0.04079913,0.08350557,0.1197209,0.04433285,0.9712881,-0.1875859,-8.479475,-36.03675,-9.458278,1008.277
5.095745564,0.2260536,0.02321493,-0.002465904,0.04194543,0.9683127,-0.1828334,-8.479475,-36.03675,-9.458278,1008.277
5.100769997,0.2258922,-0.09714364,0.1196664,0.04383256,0.9727382,-0.1861304,-8.479475,-36.03675,-9.458278,1008.277
5.105794907,0.4110304,-0.03690116,-0.06358574,0.0438449,0.9717364,-0.182312,-8.479475,-36.03675,-9.458278,1008.277
5.110820293,0.2255309,-0.09702161,0.1195928,0.04189143,0.9731769,-0.1808558,-8.479475,-36.03675,-9.458278,1008.277
5.115844250,0.5958913,-0.2173235,0.1195753,0.04521092,0.9795431,-0.1812555,-8.479475,-36.03675,-9.458278,1008.277
5.120869637,0.3485349,-0.03656703,0.05839638,0.04334974,0.9727054,-0.1818205,-8.479475,-36.03675,-9.458278,1008.277
5.125893593,0.2865559,-0.09676333,-0.06379028,0.04139609,0.9741492,-0.1808431,-8.480774,-36.03633,-9.003559,1008.277
5.130918026,0.1628752,0.14408,0.05834222,0.04577545,0.9722667,-0.1866165,-8.480774,-36.03633,-9.003559,1008.275
5.135942459,0.5332361,0.08382694,-0.0027982,0.04186232,0.9756486,-0.1856133,-8.480774,-36.03633,-9.003559,1008.275
5.140967846,0.1624379,-0.03662644,-0.06380428,0.04137298,0.9761233,-0.1841702,-8.480774,-36.03633,-9.003559,1008.275
5.145991802,0.2240571,0.0235591,0.05838577,0.04335998,0.9717431,-0.1837483,-8.480774,-36.03633,-9.003559,1008.275
5.151016712,0.1004351,-0.0968186,-0.1248279,0.04286853,0.9722574,-0.1880516,-8.480774,-36.03633,-9.003559,1008.275
5.156041622,0.03859254,-0.09677669,0.0584467,0.04721136,0.973756,-0.1889929,-8.480774,-36.03633,-9.003559,1008.275
5.161066532,0.0385489,0.08388519,-0.2468786,0.04722865,0.9722763,-0.1866172,-8.480774,-36.03633,-9.003559,1008.275
5.166090965,0.162006,0.0838514,-0.06364245,0.04143158,0.9707878,-0.1885484,-8.480774,-36.03633,-9.003559,1008.275
5.171115875,0.03842291,0.2644187,-0.1247062,0.04184731,0.9770855,-0.1817638,-8.480774,-36.03633,-9.003559,1008.274
5.176140308,0.1618801,-0.09691173,0.05854911,0.0467176,0.9746985,-0.1846704,-8.476231,-36.71428,-8.55073,1008.274
5.181165218,-0.02354058,-0.0366694,-0.1246263,0.04284805,0.9741819,-0.1841959,-8.476231,-36.71428,-8.55073,1008.274
5.186189652,0.0999749,0.08373544,-0.246698,0.04477099,0.9756249,-0.1793896,-8.476231,-36.71428,-8.55073,1008.274
5.191214085,-0.20883,-0.03662331,0.05866887,0.04283659,0.9751673,-0.18562,-8.476231,-36.71428,-8.55073,1008.274
5.196238995,-0.3939983,0.1438873,-0.1855336,0.0423739,0.9732164,-0.1861235,-8.476231,-36.71428,-8.55073,1008.274
5.201263428,-0.14673,0.2040162,-0.06336305,0.04770916,0.9727374,-0.1823015,-8.476231,-36.71428,-8.55073,1008.274
5.206288338,0.100383,0.2640884,-0.124427,0.04818879,0.9732152,-0.1803801,-8.476231,-36.71428,-8.55073,1008.274
5.211312771,0.2856194,0.2639792,-0.1243296,0.04579239,0.9707935,-0.1851986,-8.476231,-36.71428,-8.55073,1008.272
5.216337681,0.28544,0.08325011,-0.0632437,0.04820537,0.9717487,-0.1799199,-8.476231,-36.71428,-8.55073,1008.272
5.221362114,0.2852413,0.2637989,-0.1853348,0.0413728,0.9761266,-0.1846491,-8.476231,-36.71428,-8.55073,1008.272
5.226386547,0.2233409,0.02288847,-0.3073491,0.04817504,0.9742435,-0.1880294,-8.479418,-36.34426,-8.549699,1008.272
5.231411457,0.09966107,0.2034752,-0.123979,0.04671935,0.9746655,-0.1798819,-8.479418,-36.34426,-8.549699,1008.272
5.236435890,-0.08570109,0.143147,-0.1849857,0.04765427,0.9776182,-0.1827182,-8.479418,-36.34426,-8.549699,1008.272
5.241461277,-0.02388719,0.143057,-0.3070387,0.04284293,0.974663,-0.1832319,-8.479418,-36.34426,-8.549699,1008.272
5.246485710,-0.02385278,0.1429672,0.05950823,0.04335486,0.9722243,-0.1827844,-8.479418,-36.34426,-8.549699,1008.272
5.251510620,0.03794165,0.2030588,-0.1847907,0.03943997,0.9756392,-0.1865698,-8.479418,-36.34426,-8.549699,1008.272
5.256535053,0.2231397,0.1427687,-0.06254385,0.04479694,0.9732126,-0.1832516,-8.479418,-36.34426,-8.549699,1008.272
5.261559963,0.5317222,-0.03792205,-0.0624662,0.04527622,0.9736969,-0.1822878,-8.479418,-36.34426,-8.549699,1008.272
5.266584396,0.5314075,0.2028465,-0.2456231,0.04375348,0.9799982,-0.1778965,-8.479418,-36.34426,-8.549699,1008.272
5.271609306,0.4075148,0.1425187,0.05980059,0.04039906,0.976598,-0.1832058,-8.84494,-36.71868,-9.462223,1008.272
5.276629925,0.4072976,-0.03815302,-0.001283199,0.04185173,0.9766175,-0.1846431,-8.84494,-36.71868,-9.462223,1008.272
5.281654358,0.1600404,0.2025967,-0.1233556,0.04185295,0.9765944,-0.1812911,-8.84494,-36.71868,-9.462223,1008.272
5.286678791,-0.2105623,-0.03831307,-0.06219355,0.04673064,0.9736835,-0.1789366,-8.84494,-36.71868,-9.462223,1008.272
5.291703701,-0.08690987,0.08209281,-0.1231815,0.0452374,0.977121,-0.1836809,-8.84494,-36.71868,-9.462223,1008.272
5.296728134,-0.2721742,0.08204123,-0.06201955,0.0443062,0.9737137,-0.1856394,-8.84494,-36.71868,-9.462223,1008.27
5.301753044,0.09849884,0.02177042,-0.1230652,0.04624414,0.9737199,-0.1846826,-8.84494,-36.71868,-9.462223,1008.27
5.306777477,-0.08678497,0.2625771,-0.1229303,0.04866614,0.9737359,-0.1846839,-8.84494,-36.71868,-9.462223,1008.27
5.311801910,0.03677024,0.2022496,-0.0007414818,0.04379497,0.9761392,-0.1841715,-8.84494,-36.71868,-9.462223,1008.27
5.316826820,0.03672775,0.2020847,-0.0007410198,0.04333368,0.974162,-0.1808441,-8.84494,-36.71868,-9.462223,1008.27
5.321851253,0.03670467,0.1418141,-0.06182513,0.0424016,0.9707711,-0.1851968,-8.476818,-36.34511,-9.459136,1008.27
5.326876163,0.09842226,0.2019254,-0.1228709,0.04132427,0.980503,-0.1826777,-8.476818,-36.34511,-9.459136,1008.27
5.331901550,0.1601399,0.26198,0.06034495,0.04378932,0.9766303,-0.1846441,-8.476818,-36.34511,-9.459136,1008.27
5.336925983,-0.02524086,0.2016151,-0.06180456,0.04429049,0.9751636,-0.1837053,-8.476818,-36.34511,-9.459136,1008.27
5.341950416,-0.1487645,0.2014884,0.1213921,0.04335416,0.9722375,-0.1846998,-8.476818,-36.34511,-9.459136,1008.27
5.346976757,-0.148671,0.0809422,-0.06182282,0.03995737,0.9727126,-0.1861285,-8.476818,-36.34511,-9.459136,1008.27
5.351999760,-0.02507695,0.1410728,-0.1228302,0.04532033,0.9697884,-0.1813799,-8.476818,-36.34511,-9.459136,1008.27
5.357024669,-0.0250418,0.08078381,-0.1227722,0.04191895,0.970735,-0.180408,-8.476818,-36.34511,-9.459136,1008.27
5.362049103,-0.02496786,-0.09988692,-0.0006026626,0.04139538,0.9741624,-0.1827585,-8.476818,-36.34511,-9.459136,1008.27
5.367073536,0.1602892,0.02057654,-0.1837409,0.04531276,0.9703158,-0.18712,-8.476818,-36.34511,-9.459136,1008.27
5.372098446,0.4071898,0.0205447,-0.0004868507,0.0428484,0.9741753,-0.1832381,-8.168692,-36.34172,-9.002705,1008.27
5.377122879,0.3451546,0.08071324,-0.0004481748,0.04235888,0.9746532,-0.1822739,-8.168692,-36.34172,-9.002705,1008.27
5.382147789,0.1596382,0.02046218,-0.1225595,0.04772452,0.971294,-0.1851933,-8.168692,-36.34172,-9.002705,1008.27
5.387172222,0.1595379,-0.03975103,-0.0004092604,0.04188578,0.973668,-0.1813284,-8.168692,-36.34172,-9.002705,1008.27
5.392197132,-0.02582303,-0.03972606,-0.06145521,0.04863349,0.976659,-0.1841677,-8.168692,-36.34172,-9.002705,1008.27
5.397224903,-0.02586501,0.2010436,-0.0003895834,0.04525911,0.9751734,-0.1841847,-8.168692,-36.34172,-9.002705,1008.27
5.402245998,0.09767133,0.2009551,-0.06143555,0.04330597,0.9766073,-0.1817707,-8.168692,-36.34172,-9.002705,1008.27
5.407270908,-0.2728727,0.02028453,-0.0003123805,0.04577016,0.972751,-0.1861314,-8.168692,-36.34172,-9.002705,1008.27
5.412296772,-0.2727207,0.08049106,-0.122443,0.04770351,0.9732285,-0.1827742,-8.168692,-36.34172,-9.002705,1008.27
5.417320728,-0.08732742,0.02024014,0.06081095,0.04185773,0.9761199,-0.1832128,-8.168692,-36.34172,-9.002705,1008.27
5.422345161,-0.2724557,-0.04001077,-0.06133886,0.04289199,0.9702767,-0.1837667,-8.171349,-36.03337,-9.001846,1008.27
5.427370071,-0.1488226,0.2007591,0.1829421,0.04819338,0.972744,-0.1827806,-8.171349,-36.03337,-9.001846,1008.27
5.432394504,-0.1487097,-0.04016849,0.06071553,0.04143368,0.9707482,-0.1828021,-8.171349,-36.03337,-9.001846,1008.27
5.437419414,-0.02513504,0.2006771,0.06065821,0.04578162,0.9717657,-0.1847073,-8.171349,-36.03337,-9.001846,1008.27
5.442448616,-0.1486588,0.1403507,-0.1836223,0.03893527,0.9775572,-0.1822349,-8.171349,-36.03337,-9.001846,1008.27
5.447468758,0.03667597,0.01986177,-0.000406675,0.04283641,0.9751706,-0.1860988,-8.171349,-36.03337,-9.001846,1008.27
5.452493191,0.160173,0.3207376,0.1217436,0.04480364,0.9727017,-0.1799057,-8.171349,-36.03337,-9.001846,1008.27
