Time (s),Gyroscope X (deg/s),Gyroscope Y (deg/s),Gyroscope Z (deg/s),Accelerometer X (g),Accelerometer Y (g),Accelerometer Z (g),Magnetometer X (uT),Magnetometer Y (uT),Magnetometer Z (uT),Barometer (hPa)
0.000000000,0.2583507,0.9004251,0.2913431,-0.02057128,0.9863115,0.1612553,-5.444502,-29.25961,-21.81115,1009.295
0.005078316,0.3202126,0.9004251,0.2913431,-0.02503654,0.9900696,0.1516894,-5.444502,-29.25961,-21.81115,1009.295
0.010151863,0.4439363,1.078892,0.2303362,-0.02458605,0.992552,0.156958,-5.444502,-29.25961,-21.81115,1009.295
0.015227795,0.5057981,1.673781,0.5353707,-0.02028839,0.997003,0.1574298,-5.444502,-29.25961,-21.81115,1009.295
0.020305157,0.4439363,1.435826,0.5353707,-0.02985979,0.9885995,0.1598413,-5.444502,-29.25961,-21.81115,1009.295
0.025379658,0.3202126,1.792759,0.5353707,-0.02643476,0.9876866,0.1612696,-5.444502,-29.25961,-21.81115,1009.295
0.030455589,0.4439363,1.852248,0.5353707,-0.02840064,0.988621,0.1598379,-5.444502,-29.25961,-21.81115,1009.295
0.035531521,0.3820744,1.852248,0.6573845,-0.03335977,0.9939209,0.1617683,-5.444502,-29.25961,-21.81115,1009.295
0.040607452,0.3820744,2.090204,0.6573845,-0.02850407,0.9944832,0.1622364,-5.833281,-28.8854,-22.72852,1009.295
0.045683384,0.1964888,1.852248,0.5963776,-0.03186809,0.9925072,0.1651165,-5.833281,-28.8854,-22.72852,1009.295
0.050758839,0.3202126,1.911737,0.7183915,-0.03195274,0.9968717,0.1627248,-5.833281,-28.8854,-22.72852,1009.295
0.055834770,0.2583507,2.149693,0.9014122,-0.03249447,0.999779,0.16177,-5.833281,-28.8854,-22.72852,1009.295
0.060915470,0.2583507,2.209182,0.7793984,-0.03531023,0.9943977,0.1641677,-5.833281,-28.8854,-22.72852,1009.295
0.065986633,-0.05095861,2.090204,0.6573845,-0.03924109,0.9957427,0.1565148,-5.833281,-28.8854,-22.72852,1009.295
0.071062565,0.01090325,2.209182,0.6573845,-0.03814059,0.9894776,0.1632134,-5.833281,-28.8854,-22.72852,1009.295
0.076138496,0.134627,2.149693,0.5353707,-0.04061649,0.9918804,0.1636995,-5.833281,-28.8854,-22.72852,1009.297
0.081214428,0.01090325,2.030715,0.7183915,-0.03966567,0.9928502,0.1613033,-5.833281,-28.8854,-22.72852,1009.297
0.086290360,-0.1128205,1.852248,0.5353707,-0.04216924,0.9967104,0.1613114,-5.059944,-29.26261,-21.80837,1009.297
0.091366291,-0.05095861,1.911737,0.4743638,-0.03903276,0.9850804,0.1632127,-5.059944,-29.26261,-21.80837,1009.297
0.096442223,-0.1746823,1.554803,0.5963776,-0.03769972,0.9913886,0.1574664,-5.059944,-29.26261,-21.80837,1009.297
0.101517677,-0.05095861,1.911737,0.4133569,-0.03673194,0.9924356,0.1651276,-5.059944,-29.26261,-21.80837,1009.297
0.106593609,-0.1128205,1.792759,0.5353707,-0.03714257,0.9880236,0.1622523,-5.059944,-29.26261,-21.80837,1009.297
0.111669540,-0.2984061,1.435826,0.4743638,-0.03671557,0.9909269,0.1589006,-5.059944,-29.26261,-21.80837,1009.297
0.116745472,-0.1746823,1.435826,0.4743638,-0.03479125,0.9924423,0.1622497,-5.059944,-29.26261,-21.80837,1009.297
0.121821404,-0.2984061,0.959914,0.35235,-0.04250586,0.9889408,0.1651388,-5.059944,-29.26261,-21.80837,1009.297
0.126897335,-0.2365442,0.8409361,0.2913431,-0.0440203,0.9913066,0.1589177,-5.059944,-29.26261,-21.80837,1009.297
0.131973743,-0.4221298,0.6624693,0.1083223,-0.04541683,0.9884036,0.1641873,-5.059944,-29.26261,-21.80837,1009.297
0.137049675,-0.2365442,0.7219583,0.2913431,-0.04344934,0.9874766,0.1665768,-5.062059,-28.88643,-22.26854,1009.297
0.142125607,-0.3602679,0.3055357,0.1693292,-0.04204466,0.989889,0.160828,-5.062059,-28.88643,-22.26854,1009.297
0.147201538,-0.2984061,0.2460468,0.2303362,-0.03908399,0.9874859,0.1593829,-5.062059,-28.88643,-22.26854,1009.297
0.152276516,-0.3602679,0.127069,0.0473154,-0.03723543,0.9934061,0.1656083,-5.062059,-28.88643,-22.26854,1009.297
0.157355785,-0.4839917,0.127069,0.1083223,-0.03825613,0.9952847,0.158428,-5.062059,-28.88643,-22.26854,1009.297
0.159890652,-0.4839917,-0.1108868,0.0473154,-0.0376639,0.9894406,0.1574651,-5.062059,-28.88643,-22.26854,1009.297
0.164966583,-0.05095861,-0.2298646,-0.07469842,-0.04002505,0.9860327,0.1622577,-5.062059,-28.88643,-22.26854,1009.297
0.170042515,-0.1128205,-0.3488426,-0.1357053,-0.04009105,0.9899543,0.1656128,-5.062059,-28.88643,-22.26854,1009.297
0.175118446,-0.1746823,-0.2893536,-0.1967122,-0.03822934,0.9943511,0.1636955,-5.062059,-28.88643,-22.26854,1009.297
0.180198669,-0.1746823,-0.4083315,-0.1357053,-0.03371915,0.9871033,0.1627228,-5.062059,-28.88643,-22.26854,1009.297
0.185270309,-0.2365442,-0.6462872,-0.379733,-0.03769164,0.9914254,0.1622557,-5.059956,-28.88145,-21.81412,1009.297
0.190346241,-0.1128205,-0.5867983,-0.5017468,-0.03220053,0.9837012,0.1608015,-5.059956,-28.88145,-21.81412,1009.297
0.195422173,-0.05095861,-0.8247541,-0.4407399,-0.02983703,0.9876475,0.1627142,-5.059956,-28.88145,-21.81412,1009.297
0.200498581,-0.1128205,-0.6462872,-0.5017468,-0.03382582,0.9929509,0.1632056,-5.059956,-28.88145,-21.81412,1009.297
0.205573559,-0.2984061,-0.6462872,-0.3187261,-0.03241145,0.9954072,0.1632039,-5.059956,-28.88145,-21.81412,1009.297
0.210649490,-0.3602679,-0.765265,-0.5627537,-0.03278955,0.9895599,0.16368,-5.059956,-28.88145,-21.81412,1009.297
0.215725422,-0.3602679,-0.7057762,-0.5017468,-0.03377209,0.990029,0.1632037,-5.059956,-28.88145,-21.81412,1009.297
0.220801354,0.01090325,-0.8247541,-0.5017468,-0.03472297,0.9895864,0.1708684,-5.059956,-28.88145,-21.81412,1009.297
0.225877762,-0.2365442,-0.6462872,-0.5627537,-0.02749636,0.9930732,0.1670225,-5.059956,-28.88145,-21.81412,1009.297
0.230953693,-0.4221298,-0.4678204,-0.3187261,-0.02835431,0.9867207,0.1660627,-5.446617,-28.88343,-22.27132,1009.297
0.236029625,-0.3602679,-0.4083315,-0.5627537,-0.02598354,0.9907002,0.1722857,-5.446617,-28.88343,-22.27132,1009.297
0.241105557,-0.1746823,-0.5273094,-0.379733,-0.02739292,0.987211,0.164624,-5.446617,-28.88343,-22.27132,1009.297
0.246181488,-0.1746823,-0.5273094,-0.3187261,-0.02547102,0.9887153,0.1665362,-5.446617,-28.88343,-22.27132,1009.297
0.251256466,0.07276511,-0.2298646,-0.1967122,-0.02640062,0.9862587,0.165579,-5.446617,-28.88343,-22.27132,1009.297
0.256332874,0.07276511,-0.3488426,-0.1967122,-0.02787938,0.9877313,0.1698936,-5.446617,-28.88343,-22.27132,1009.297
0.261408806,0.134627,-0.1108868,-0.2577192,-0.02051027,0.9834227,0.1655637,-5.446617,-28.88343,-22.27132,1009.297
0.266484737,0.3820744,0.06758001,-0.1357053,-0.02981266,0.9867029,0.1665449,-5.446617,-28.88343,-22.27132,1009.297
0.271563053,0.1964888,0.127069,-0.1357053,-0.02296334,0.9843462,0.1636542,-5.446617,-28.88343,-22.27132,1009.297
0.276636601,0.2583507,0.3055357,-0.1357053,-0.02208505,0.9897357,0.1660501,-5.446617,-28.88343,-22.27132,1009.297
0.281712532,0.2583507,0.5434915,-0.1357053,-0.02301135,0.9867663,0.1617401,-6.213633,-28.87245,-21.82248,1009.295
0.286791325,0.134627,0.4245136,-0.1967122,-0.02543116,0.9867857,0.1689295,-6.213633,-28.87245,-21.82248,1009.295
0.291864395,0.134627,0.6624693,0.0473154,-0.02884063,0.9861862,0.1607953,-6.213633,-28.87245,-21.82248,1009.295
0.296940327,0.2583507,0.8409361,0.2303362,-0.02168815,0.9940853,0.1607837,-6.213633,-28.87245,-21.82248,1009.295
0.302015781,0.2583507,0.959914,0.1693292,-0.02591585,0.9862585,0.16462,-6.213633,-28.87245,-21.82248,1009.295
0.307095051,0.01090325,1.19787,0.35235,-0.02942149,0.9915543,0.1631946,-6.213633,-28.87245,-21.82248,1009.295
0.312167645,0.134627,1.435826,0.2303362,-0.02702781,0.9935269,0.1617535,-6.213633,-28.87245,-21.82248,1009.295
0.317243576,0.134627,1.316848,0.2913431,-0.02792159,0.9891225,0.160795,-6.213633,-28.87245,-21.82248,1009.295
0.322319508,0.07276511,1.078892,0.35235,-0.03092542,0.9939677,0.1631995,-6.213633,-28.87245,-21.82248,1009.295
0.324857712,0.134627,1.19787,0.2913431,-0.0275117,0.9930034,0.1579229,-6.213633,-28.87245,-21.82248,1009.295
0.329933643,0.134627,1.554803,0.4133569,-0.03144514,0.9953921,0.1593702,-5.446629,-28.50227,-22.27708,1009.295
0.335009575,0.134627,1.316848,0.4133569,-0.02605012,0.9930359,0.1593563,-5.446629,-28.50227,-22.27708,1009.295
0.340085507,0.3202126,1.376337,0.4743638,-0.02989642,0.9905438,0.1593637,-5.446629,-28.50227,-22.27708,1009.295
0.345161438,0.07276511,1.554803,0.5963776,-0.03137518,0.9920163,0.1636783,-5.446629,-28.50227,-22.27708,1009.295
0.350236416,0.1964888,1.316848,0.35235,-0.03288887,0.9949131,0.1632046,-5.446629,-28.50227,-22.27708,1009.295
0.355312824,0.134627,1.554803,0.35235,-0.03285459,0.9924304,0.156977,-5.446629,-28.50227,-22.27708,1009.295
0.360388756,0.07276511,1.435826,0.4133569,-0.03427887,0.9915122,0.1670371,-5.446629,-28.50227,-22.27708,1009.295
0.365464687,0.07276511,1.257359,0.4133569,-0.03196815,0.9973293,0.1588937,-5.446629,-28.50227,-22.27708,1009.297
0.370540619,0.134627,1.376337,0.5353707,-0.03670581,0.9904436,0.1593793,-5.446629,-28.50227,-22.27708,1009.297
0.375616551,0.3820744,1.078892,0.5353707,-0.03710102,0.9855739,0.160335,-5.831156,-29.64273,-22.2626,1009.297
0.380692482,0.134627,1.019403,0.5353707,-0.03423476,0.9880188,0.1560196,-5.831156,-29.64273,-22.2626,1009.297
0.385768414,0.07276511,1.019403,0.2913431,-0.03668782,0.9889423,0.1541101,-5.831156,-29.64273,-22.2626,1009.297
0.390844345,0.01090325,0.8409361,0.2303362,-0.04101654,0.9869887,0.1617817,-5.831156,-29.64273,-22.2626,1009.297
0.395920277,0.07276511,0.7219583,0.5353707,-0.03568099,0.988056,0.1636857,-5.831156,-29.64273,-22.2626,1009.297
0.400995731,-0.1746823,0.6029804,0.1083223,-0.03517823,0.9865544,0.1574576,-5.831156,-29.64273,-22.2626,1009.297
0.406071663,-0.1128205,0.6029804,0.1083223,-0.0357119,0.9894986,0.1612921,-5.831156,-29.64273,-22.2626,1009.297
0.411147595,-0.05095861,0.4840025,0.0473154,-0.03922641,0.994754,0.1545985,-5.831156,-29.64273,-22.2626,1009.297
0.416223526,-0.2365442,0.3055357,0.1083223,-0.03284813,0.9924598,0.1608084,-5.831156,-29.64273,-22.2626,1009.297
0.421299458,-0.05095861,0.4245136,0.1693292,-0.02993628,0.9924734,0.1569703,-5.831156,-29.64273,-22.2626,1009.297
0.426375389,0.1964888,0.3650247,-0.01369151,-0.04108077,0.9898629,0.1555576,-5.059956,-28.88145,-21.81412,1009.297
0.431451321,-0.05095861,-0.1108868,0.1083223,-0.03969327,0.9937801,0.1555568,-5.059956,-28.88145,-21.81412,1009.297
0.436527252,-0.05095861,-0.1108868,-0.01369151,-0.04316719,0.997637,0.157004,-5.059956,-28.88145,-21.81412,1009.297
0.441603184,0.134627,-0.05139785,0.1083223,-0.04066765,0.9937585,0.1546012,-5.059956,-28.88145,-21.81412,1009.297
0.446679115,0.01090325,-0.3488426,-0.1967122,-0.0396827,0.9933005,0.1565143,-5.059956,-28.88145,-21.81412,1009.297
0.451754570,-0.05095861,-0.4678204,-0.07469842,-0.03871235,0.9933038,0.1550753,-5.059956,-28.88145,-21.81412,1009.297
0.456830502,0.134627,-0.3488426,-0.1357053,-0.03717502,0.9889314,0.1536323,-5.059956,-28.88145,-21.81412,1009.297
0.461906433,0.07276511,-0.4678204,-0.1967122,-0.03867902,0.9918723,0.1589058,-5.059956,-28.88145,-21.81412,1009.297
0.466982365,0.134627,-0.4678204,-0.1357053,-0.04063836,0.9923086,0.156037,-5.059956,-28.88145,-21.81412,1009.297
0.472058296,0.07276511,-0.765265,-0.1967122,-0.0366821,0.9884406,0.1521941,-5.831177,-28.88042,-22.27411,1009.297
0.477134228,0.07276511,-0.5273094,0.0473154,-0.03680667,0.995262,0.1526775,-5.831177,-28.88042,-22.27411,1009.297
0.482210159,-0.05095861,-0.5867983,0.1083223,-0.0308667,0.9900131,0.1555342,-5.831177,-28.88042,-22.27411,1009.297
0.487286091,-0.05095861,-0.7057762,0.1083223,-0.03624306,0.9919264,0.1612948,-5.831177,-28.88042,-22.27411,1009.297
0.489824295,0.07276511,-0.8247541,0.0473154,-0.03620467,0.9889348,0.1521933,-5.831177,-28.88042,-22.27411,1009.297
0.494900227,-0.05095861,-0.765265,-0.1357053,-0.03328812,0.9900251,0.1617658,-5.831177,-28.88042,-22.27411,1009.297
0.499976158,-0.05095861,-0.6462872,-0.1967122,-0.03380211,0.9909478,0.1560204,-5.831177,-28.88042,-22.27411,1009.297
0.505051613,-0.2365442,-0.765265,-0.07469842,-0.03233069,0.9899696,0.152664,-5.831177,-28.88042,-22.27411,1009.297
0.510127545,0.07276511,-0.6462872,-0.1357053,-0.03242033,0.9953668,0.1579357,-5.831177,-28.88042,-22.27411,1009.297
0.515203476,0.1964888,-0.5273094,0.1693292,-0.03138568,0.9919686,0.1574523,-5.831177,-28.88042,-22.27411,1009.297
0.520279408,0.1964888,-0.4083315,0.1693292,-0.03380461,0.9914643,0.1598521,-6.213621,-29.2536,-21.81673,1009.297
0.525355339,0.1964888,-0.4083315,0.1693292,-0.03194694,0.9958426,0.1555403,-6.213621,-29.2536,-21.81673,1009.295
0.530431271,0.2583507,-0.5867983,0.1693292,-0.0312945,0.9871061,0.1584069,-6.213621,-29.2536,-21.81673,1009.295
0.535508633,0.07276511,-0.3488426,0.1693292,-0.02788819,0.9871635,0.1593569,-6.213621,-29.2536,-21.81673,1009.295
0.540583134,0.2583507,-0.1703757,0.1693292,-0.03579573,0.9938668,0.1593793,-6.213621,-29.2536,-21.81673,1009.295
0.545659065,0.2583507,-0.1703757,-0.01369151,-0.03232988,0.9899733,0.1531429,-6.213621,-29.2536,-21.81673,1009.295
0.550736427,0.2583507,-0.05139785,0.1693292,-0.03022975,0.9822616,0.1598382,-6.213621,-29.2536,-21.81673,1009.295
0.555810452,0.3820744,-0.1108868,-0.01369151,-0.02984511,0.9876108,0.1579249,-6.213621,-29.2536,-21.81673,1009.295
0.560886383,0.3202126,0.008091077,0.1083223,-0.02639402,0.9852333,0.1588734,-6.213621,-29.2536,-21.81673,1009.295
0.565962315,0.2583507,0.1865579,0.1693292,-0.02895705,0.9925171,0.1607995,-6.213621,-29.2536,-21.81673,1009.293
0.571038246,0.2583507,0.2460468,0.2303362,-0.03487185,0.9968251,0.1622525,-5.446629,-28.50227,-22.27708,1009.293
0.576114178,0.134627,0.3055357,0.0473154,-0.03093181,0.9934109,0.1540996,-5.446629,-28.50227,-22.27708,1009.293
0.581194878,0.07276511,0.2460468,0.4743638,-0.03234141,0.9915041,0.1622434,-5.446629,-28.50227,-22.27708,1009.293
0.586266041,0.134627,0.3650247,0.0473154,-0.02900507,0.9949372,0.1588854,-5.446629,-28.50227,-22.27708,1009.293
0.591342449,0.3202126,0.4840025,0.35235,-0.03142803,0.9944145,0.1588906,-5.446629,-28.50227,-22.27708,1009.293
0.596418381,0.1964888,0.7814472,0.35235,-0.03581687,0.9948261,0.1574642,-5.446629,-28.50227,-22.27708,1009.293
0.601494312,0.3820744,0.6624693,0.1693292,-0.03533049,0.9948332,0.1574631,-5.446629,-28.50227,-22.27708,1009.293
0.606569290,0.56766,0.8409361,0.35235,-0.03336381,0.9939026,0.1593737,-5.446629,-28.50227,-22.27708,1009.293
0.611645222,0.3820744,0.6029804,0.4743638,-0.03089687,0.9919868,0.1588879,-5.446629,-28.50227,-22.27708,1009.293
0.616721153,0.134627,1.019403,0.5353707,-0.03337526,0.9949059,0.1632058,-5.446629,-28.50227,-22.27708,1009.293
0.621797562,0.3820744,0.9004251,0.6573845,-0.03190546,0.9939203,0.1588914,-5.448709,-29.26956,-22.71998,1009.293
0.626873493,0.134627,1.078892,0.4743638,-0.03536139,0.9962758,0.1550694,-5.448709,-29.26956,-22.71998,1009.293
0.631949425,0.07276511,1.019403,0.6573845,-0.03423241,0.9885572,0.1627249,-5.448709,-29.26956,-22.71998,1009.293
0.637025356,0.01090325,1.138381,0.7793984,-0.03278544,0.9890509,0.1608061,-5.448709,-29.26956,-22.71998,1009.293
0.642101288,0.3202126,0.959914,0.7183915,-0.03537358,0.9967481,0.1531541,-5.448709,-29.26956,-22.71998,1009.293
0.647177220,0.134627,0.7814472,0.5353707,-0.03575176,0.9914283,0.1588987,-5.448709,-29.26956,-22.71998,1009.293
0.652252674,0.2583507,0.8409361,0.5963776,-0.03524093,0.9899634,0.1574599,-5.448709,-29.26956,-22.71998,1009.296
0.657328606,0.3820744,0.959914,0.5353707,-0.03869128,0.992872,0.1622589,-5.448709,-29.26956,-22.71998,1009.296
0.659866333,0.3820744,0.7814472,0.6573845,-0.04167632,0.9962196,0.1598732,-5.448709,-29.26956,-22.71998,1009.296
0.664942265,0.3820744,0.5434915,0.6573845,-0.03918251,0.9928428,0.1593865,-5.448709,-29.26956,-22.71998,1009.296
0.670018196,0.3202126,0.7814472,0.4133569,-0.03922729,0.9952777,0.1593881,-5.446629,-28.50227,-22.27708,1009.296
0.675094128,0.1964888,0.6029804,0.35235,-0.04008774,0.9894416,0.16226,-5.446629,-28.50227,-22.27708,1009.296
0.680170059,0.2583507,0.9004251,0.4133569,-0.0410702,0.9893832,0.1565151,-5.446629,-28.50227,-22.27708,1009.296
0.685246468,0.2583507,0.7219583,0.1693292,-0.03863916,0.9899427,0.1612991,-5.446629,-28.50227,-22.27708,1009.296
0.690322399,0.3202126,0.6624693,0.2303362,-0.03371908,0.9865759,0.1574543,-5.446629,-28.50227,-22.27708,1009.296
0.695398331,0.3202126,0.6624693,0.35235,-0.03665046,0.987529,0.1603352,-5.446629,-28.50227,-22.27708,1009.296
0.700474262,0.3820744,0.3650247,0.4743638,-0.0385993,0.9880131,0.1636924,-5.446629,-28.50227,-22.27708,1009.296
0.705549240,0.07276511,0.3055357,0.35235,-0.03612744,0.9855919,0.1608117,-5.446629,-28.50227,-22.27708,1009.296
0.710625172,0.134627,0.3650247,0.35235,-0.03857816,0.9870539,0.1656075,-5.446629,-28.50227,-22.27708,1009.296
0.715701580,0.1964888,0.06758001,0.2303362,-0.04051951,0.9859887,0.1574696,-5.446596,-29.64573,-22.25981,1009.296
0.720777512,0.3820744,0.127069,0.1083223,-0.0376509,0.9889721,0.1598594,-5.446596,-29.64573,-22.25981,1009.296
0.725853443,0.2583507,0.127069,0.0473154,-0.03910683,0.9889653,0.1617785,-5.446596,-29.64573,-22.25981,1009.296
0.730929375,0.2583507,0.06758001,0.0473154,-0.0342788,0.9909847,0.1617686,-5.446596,-29.64573,-22.25981,1009.296
0.736005306,0.134627,0.127069,0.0473154,-0.03769238,0.9908943,0.1565083,-5.446596,-29.64573,-22.25981,1009.296
0.741081238,0.3820744,-0.1703757,-0.01369151,-0.03908326,0.988017,0.1651303,-5.446596,-29.64573,-22.25981,1009.296
0.746159077,0.1964888,0.008091077,0.0473154,-0.0387125,0.9943587,0.1656123,-5.446596,-29.64573,-22.25981,1009.296
0.751233101,0.01090325,-0.2298646,0.2303362,-0.03632367,0.9963093,0.1612977,-5.446596,-29.64573,-22.25981,1009.296
0.756308556,0.134627,-0.3488426,-0.01369151,-0.0366782,0.9895137,0.1651257,-5.446596,-29.64573,-22.25981,1009.296
0.761384487,0.1964888,-0.3488426,-0.01369151,-0.03524511,0.9909998,0.1656023,-5.446596,-29.64573,-22.25981,1009.296
0.766460419,0.134627,-0.3488426,0.0473154,-0.02845195,0.9915539,0.1612767,-5.062059,-28.88643,-22.26854,1009.296
0.771536350,0.01090325,-0.2893536,-0.1357053,-0.03570536,0.9890007,0.159855,-5.062059,-28.88643,-22.26854,1009.296
0.776612282,0.2583507,-0.2298646,0.0473154,-0.03038611,0.9910493,0.1627176,-5.062059,-28.88643,-22.26854,1009.296
0.781688213,0.1964888,-0.5273094,0.1693292,-0.03475616,0.9899632,0.1565009,-5.062059,-28.88643,-22.26854,1009.296
0.786764145,0.134627,-0.4678204,-0.01369151,-0.03137841,0.9920017,0.1617626,-5.062059,-28.88643,-22.26854,1009.296
0.791840076,0.07276511,-0.4083315,0.1083223,-0.03420635,0.9870926,0.162245,-5.062059,-28.88643,-22.26854,1009.296
0.796916008,-0.1128205,-0.4083315,-0.1357053,-0.0313279,0.9890651,0.1598449,-5.062059,-28.88643,-22.26854,1009.296
0.801991939,0.07276511,-0.3488426,-0.01369151,-0.03180452,0.9885746,0.1603247,-5.062059,-28.88643,-22.26854,1009.296
0.807067394,-0.1128205,-0.2893536,-0.1967122,-0.03032665,0.9876257,0.1607996,-5.062059,-28.88643,-22.26854,1009.296
0.812143326,-0.1128205,-0.2298646,-0.1967122,-0.03139221,0.9924666,0.1588894,-5.831177,-28.88042,-22.27411,1009.296
0.817219257,-0.1128205,-0.2893536,-0.01369151,-0.02848374,0.9935201,0.1636726,-5.831177,-28.88042,-22.27411,1009.296
0.819757462,-0.1128205,-0.2893536,-0.1967122,-0.02745393,0.9900999,0.1603156,-5.831177,-28.88042,-22.27411,1009.296
0.824833870,-0.1128205,-0.1703757,-0.2577192,-0.03190135,0.9934114,0.1560176,-5.831177,-28.88042,-22.27411,1009.296
0.829909325,-0.2984061,-0.1703757,-0.01369151,-0.02645194,0.9891917,0.1670177,-5.831177,-28.88042,-22.27411,1009.296
0.834985256,0.01090325,0.008091077,0.1083223,-0.02594353,0.9877158,0.1641421,-5.831177,-28.88042,-22.27411,1009.296
0.840061665,-0.1128205,-0.1108868,-0.07469842,-0.02493574,0.9857785,0.1636596,-5.831177,-28.88042,-22.27411,1009.296
0.845137119,0.07276511,0.127069,0.0473154,-0.02704176,0.9950467,0.1694173,-5.831177,-28.88042,-22.27411,1009.296
0.850213051,0.01090325,0.1865579,0.1083223,-0.02642581,0.9871996,0.1612693,-5.831177,-28.88042,-22.27411,1009.296
0.855288506,0.01090325,0.1865579,0.5353707,-0.02733992,0.983758,0.1588746,-5.831177,-28.88042,-22.27411,1009.296
0.860364437,0.07276511,0.1865579,0.1693292,-0.02597774,0.9896711,0.1651012,-6.215736,-28.87742,-22.27689,1009.296
0.865440369,0.1964888,0.2460468,0.35235,-0.02309188,0.9906219,0.1564745,-6.215736,-28.87742,-22.27689,1009.296
0.870516300,0.07276511,0.127069,0.5963776,-0.02943044,0.9920413,0.1631949,-6.215736,-28.87742,-22.27689,1009.296
0.875592232,0.2583507,0.4840025,0.4743638,-0.03325964,0.9885715,0.1627226,-6.215736,-28.87742,-22.27689,1009.296
0.880672932,0.134627,0.06758001,0.5963776,-0.03177039,0.9871467,0.164634,-6.215736,-28.87742,-22.27689,1009.296
0.885744095,0.1964888,0.06758001,0.6573845,-0.03147112,0.9963294,0.1545816,-6.215736,-28.87742,-22.27689,1009.296
0.890820026,0.4439363,0.06758001,0.5963776,-0.03279682,0.9895269,0.1593697,-6.215736,-28.87742,-22.27689,1009.296
0.895895958,0.3820744,0.127069,0.7183915,-0.03328563,0.9895087,0.157934,-6.215736,-28.87742,-22.27689,1009.294
0.900971889,0.6913837,0.2460468,0.35235,-0.03036166,0.9895773,0.1612798,-6.215736,-28.87742,-22.27689,1009.294
0.906047344,0.6295218,0.127069,0.2913431,-0.03189085,0.9934591,0.1622436,-6.215736,-28.87742,-22.27689,1009.294
0.911126137,0.6913837,0.127069,0.0473154,-0.03283918,0.9919729,0.1608081,-5.064142,-29.65371,-22.71144,1009.294
0.916199207,0.4439363,0.3055357,0.0473154,-0.03041709,0.9930193,0.1655924,-5.064142,-29.65371,-22.71144,1009.294
0.921275139,0.6295218,0.3055357,-0.07469842,-0.0264584,0.9891623,0.1631863,-5.064142,-29.65371,-22.71144,1009.294
0.926353931,0.56766,0.3055357,-0.1357053,-0.02649753,0.9916229,0.1665404,-5.064142,-29.65371,-22.71144,1009.294
0.931427002,0.8151074,0.5434915,-0.2577192,-0.02931321,0.9857141,0.1636696,-5.064142,-29.65371,-22.71144,1009.294
0.936502933,0.8151074,0.3055357,-0.1967122,-0.02258355,0.9896734,0.1588673,-5.064142,-29.65371,-22.71144,1009.294
0.941578865,0.6913837,0.4245136,-0.379733,-0.02254611,0.9877328,0.1598239,-5.064142,-29.65371,-22.71144,1009.294
0.946654797,0.56766,0.4840025,-0.4407399,-0.01821511,0.9907522,0.1641261,-5.064142,-29.65371,-22.71144,1009.294
0.951730251,0.56766,0.3650247,-0.379733,-0.02304475,0.9887254,0.1631782,-5.064142,-29.65371,-22.71144,1009.294
0.956807137,0.1964888,0.6029804,-0.4407399,-0.02366313,0.9965614,0.1698894,-5.446617,-28.88343,-22.27132,1009.294
0.961882114,0.1964888,0.4840025,-0.5017468,-0.0235514,0.9891537,0.1564746,-5.446617,-28.88343,-22.27132,1009.294
0.966958046,0.134627,0.6029804,-0.5627537,-0.02222585,0.9970111,0.1622235,-5.446617,-28.88343,-22.27132,1009.294
0.972033978,-0.2365442,0.6624693,-0.7457745,-0.02310091,0.9916363,0.1617433,-5.446617,-28.88343,-22.27132,1009.294
0.977109909,-0.2984061,0.9004251,-0.7457745,-0.01924235,0.9931288,0.1583829,-5.446617,-28.88343,-22.27132,1009.292
0.982186317,-0.6077154,1.019403,-0.5017468,-0.0225925,0.9901604,0.1588677,-5.446617,-28.88343,-22.27132,1009.292
0.987262249,-0.6077154,1.138381,-0.7457745,-0.02028435,0.9970214,0.1598244,-5.446617,-28.88343,-22.27132,1009.292
0.992338181,-0.793301,1.435826,-0.379733,-0.0159052,0.9965657,0.1555038,-5.446617,-28.88343,-22.27132,1009.292
0.994875908,-0.9170247,1.554803,-0.379733,-0.01732045,0.994633,0.1602951,-5.446617,-28.88343,-22.27132,1009.292
0.999951839,-1.040748,1.376337,-0.3187261,-0.0143443,0.991245,0.1574126,-5.446617,-28.88343,-22.27132,1009.292
1.005027294,-1.10261,1.673781,-0.1967122,-0.01636882,0.9956066,0.1583778,-5.831165,-29.26158,-22.26835,1009.292
1.010103226,-0.9788866,1.792759,0.1083223,-0.01352135,0.999549,0.1588526,-5.831165,-29.26158,-22.26835,1009.292
1.015179157,-0.9788866,2.090204,0.1693292,-0.02019882,0.9921331,0.1574266,-5.831165,-29.26158,-22.26835,1009.292
1.020255089,-1.10261,2.447138,0.1693292,-0.01583436,0.9926661,0.1550223,-5.831165,-29.26158,-22.26835,1009.291
1.025331020,-0.9170247,2.566115,0.4133569,-0.01635422,0.9951453,0.1617299,-5.831165,-29.26158,-22.26835,1009.291
1.030406952,-0.8551629,2.744582,0.4133569,-0.02365322,0.9950233,0.159831,-5.831165,-29.26158,-22.26835,1009.291
1.035482883,-0.9170247,2.744582,0.6573845,-0.02206948,0.9882233,0.1593442,-5.831165,-29.26158,-22.26835,1009.291
1.040558815,-0.8551629,2.685093,0.5963776,-0.02017357,0.9906648,0.1564678,-5.831165,-29.26158,-22.26835,1009.291
1.045634747,-0.793301,2.923049,0.5353707,-0.0265056,0.9915862,0.1617511,-5.831165,-29.26158,-22.26835,1009.291
1.050711155,-0.7314392,2.923049,0.4743638,-0.02352952,0.9887255,0.1641371,-5.831165,-29.26158,-22.26835,1009.291
1.055787086,-0.9170247,3.220494,0.5353707,-0.02358891,0.9916218,0.1607866,-5.444492,-29.64076,-21.8054,1009.291
1.060862064,-0.7314392,3.042027,0.2913431,-0.02982316,0.9866552,0.1603189,-5.444492,-29.64076,-21.8054,1009.291
1.065937996,-0.6695773,3.042027,0.2303362,-0.03035278,0.9896177,0.166548,-5.444492,-29.64076,-21.8054,1009.291
1.071013927,-0.793301,3.161005,0.2303362,-0.02757204,0.9969507,0.1646304,-5.444492,-29.64076,-21.8054,1009.291
1.076090336,-0.7314392,3.339472,0.1083223,-0.02648277,0.9901069,0.1593555,-5.444492,-29.64076,-21.8054,1009.291
1.081166267,-0.4839917,3.517938,-0.07469842,-0.02741084,0.988185,0.1646246,-5.444492,-29.64076,-21.8054,1009.291
1.086242199,-0.6695773,3.161005,-0.01369151,-0.03368495,0.9851481,0.1617637,-5.444492,-29.64076,-21.8054,1009.291
1.091318131,-0.6077154,3.339472,0.1083223,-0.03425597,0.9895054,0.159373,-5.444492,-29.64076,-21.8054,1009.291
1.096394062,-0.6077154,3.161005,-0.01369151,-0.03420224,0.9865835,0.1593711,-5.444492,-29.64076,-21.8054,1009.291
1.101469994,-0.793301,3.458449,-0.07469842,-0.03615512,0.9870492,0.1603338,-5.448721,-28.8884,-22.72574,1009.292
1.106545448,-0.6695773,3.458449,0.0473154,-0.03905955,0.9860139,0.1579452,-5.448721,-28.8884,-22.72574,1009.292
1.111621380,-0.793301,3.39896,-0.1357053,-0.04159645,0.9913056,0.1541229,-5.448721,-28.8884,-22.72574,1009.292
1.116697311,-0.6077154,3.279983,-0.01369151,-0.041084,0.9898481,0.1536419,-5.448721,-28.8884,-22.72574,1009.292
1.121773243,-0.6695773,3.279983,0.0473154,-0.04599263,0.9922115,0.1536546,-5.448721,-28.8884,-22.72574,1009.292
1.126849175,-0.6077154,3.339472,0.0473154,-0.04745832,0.9926881,0.1550951,-5.448721,-28.8884,-22.72574,1009.292
1.131925106,-0.4839917,3.339472,-0.1967122,-0.04892481,0.993161,0.1560566,-5.448721,-28.8884,-22.72574,1009.292
1.137001038,-0.6077154,3.101516,-0.07469842,-0.0421757,0.996681,0.15748,-5.448721,-28.8884,-22.72574,1009.292
1.142076969,-0.4839917,2.982538,0.1693292,-0.04260181,0.9932539,0.1560421,-5.448721,-28.8884,-22.72574,1009.292
1.147152901,-0.4839917,3.220494,0.1693292,-0.04945033,0.9956145,0.1594118,-5.448721,-28.8884,-22.72574,1009.292
1.152230740,-0.3602679,3.220494,0.4133569,-0.05491368,1.001354,0.1560754,-5.062038,-29.64874,-22.25703,1009.292
1.157304287,-0.5458536,3.339472,0.0473154,-0.05142516,0.9970358,0.1579804,-5.062038,-29.64874,-22.25703,1009.292
1.159842014,-0.4839917,3.161005,0.0473154,-0.05297137,1.001368,0.1541553,-5.062038,-29.64874,-22.25703,1009.292
1.164917946,-0.4839917,3.279983,-0.01369151,-0.05377809,0.9926098,0.1570253,-5.062038,-29.64874,-22.25703,1009.292
1.169993877,-0.2984061,3.161005,-0.01369151,-0.05188467,0.9955677,0.1579806,-5.062038,-29.64874,-22.25703,1009.292
1.175070286,-0.2984061,3.279983,-0.01369151,-0.04456123,0.9942177,0.1584418,-5.062038,-29.64874,-22.25703,1009.292
1.180146217,-0.2365442,3.279983,-0.07469842,-0.04848652,0.9961157,0.1594099,-5.062038,-29.64874,-22.25703,1009.292
1.185222149,-0.2984061,3.339472,0.0473154,-0.04686123,0.9868661,0.1570058,-5.062038,-29.64874,-22.25703,1009.292
1.190298080,-0.6077154,3.339472,-0.1357053,-0.04843601,0.9931791,0.1574923,-5.062038,-29.64874,-22.25703,1009.292
1.195374012,-0.2365442,3.279983,-0.2577192,-0.04743556,0.9917362,0.157968,-5.062038,-29.64874,-22.25703,1009.292
1.200449944,-0.5458536,3.220494,-0.1967122,-0.04939086,0.9921908,0.1574938,-5.448721,-28.8884,-22.72574,1009.292
1.205525875,-0.4839917,3.339472,-0.1967122,-0.05036033,0.9916639,0.1541433,-5.448721,-28.8884,-22.72574,1009.292
1.210601330,-0.4839917,3.39896,-0.3187261,-0.04883122,0.9883095,0.158448,-5.448721,-28.8884,-22.72574,1009.292
1.215677261,-0.3602679,3.517938,-0.5017468,-0.04991873,0.9941059,0.1541438,-5.448721,-28.8884,-22.72574,1009.292
1.220753193,-0.4221298,3.279983,-0.6237607,-0.04692554,0.9902677,0.1560502,-5.448721,-28.8884,-22.72574,1009.292
1.225829125,-0.6077154,3.279983,-0.7457745,-0.05520391,0.9911568,0.1608591,-5.448721,-28.8884,-22.72574,1009.292
1.230905056,-0.5458536,3.339472,-0.379733,-0.05041568,0.9945784,0.1531874,-5.448721,-28.8884,-22.72574,1009.292
1.235980988,-0.6077154,3.39896,-0.5627537,-0.05227165,0.98968,0.1531886,-5.448721,-28.8884,-22.72574,1009.292
1.241056919,-0.4221298,2.982538,-0.5017468,-0.05475409,0.9925808,0.1551118,-5.448721,-28.8884,-22.72574,1009.292
1.246132851,-0.5458536,3.101516,-0.2577192,-0.05130139,0.9902107,0.1570181,-5.448721,-28.8884,-22.72574,1009.292
1.251208782,-0.4839917,3.042027,-0.4407399,-0.04881895,0.9873098,0.1550949,-5.062048,-29.26758,-22.26278,1009.292
1.256284237,-0.2984061,3.042027,-0.1967122,-0.04249595,0.9874027,0.1550804,-5.062048,-29.26758,-22.26278,1009.292
1.261360169,-0.2365442,2.982538,-0.01369151,-0.04543937,0.9877734,0.1455089,-5.062048,-29.26758,-22.26278,1009.291
1.266436100,-0.4221298,2.804071,-0.01369151,-0.04586159,0.9854195,0.1570026,-5.062048,-29.26758,-22.26278,1009.291
1.271513939,-0.6077154,2.506626,-0.1357053,-0.04390952,0.9849501,0.1555611,-5.062048,-29.26758,-22.26278,1009.291
1.276587963,-0.6695773,2.32816,-0.1357053,-0.04891505,0.9926776,0.1565352,-5.062048,-29.26758,-22.26278,1009.291
1.281663895,-0.6077154,2.209182,-0.1357053,-0.04583707,0.9834201,0.1502964,-5.062048,-29.26758,-22.26278,1009.291
1.286739826,-0.6695773,2.030715,-0.1357053,-0.04539628,0.9858584,0.1498179,-5.062048,-29.26758,-22.26278,1009.291
1.291815758,-0.7314392,1.852248,-0.01369151,-0.04493441,0.987865,0.1565231,-5.062048,-29.26758,-22.26278,1009.291
1.296891689,-0.9170247,1.673781,-0.1967122,-0.04354772,0.9917787,0.1560434,-4.679615,-28.51325,-22.72592,1009.291
1.301967621,-0.9788866,1.435826,-0.2577192,-0.04255689,0.9897643,0.1455035,-4.679615,-28.51325,-22.72592,1009.291
1.307043552,-0.8551629,1.138381,-0.1357053,-0.0387205,0.9937945,0.1555546,-4.679615,-28.51325,-22.72592,1009.291
1.312119007,-1.040748,0.959914,-0.1357053,-0.04760323,1.000472,0.1541424,-4.679615,-28.51325,-22.72592,1009.291
1.317200184,-1.10261,0.8409361,-0.379733,-0.04654744,0.996115,0.155574,-4.679615,-28.51325,-22.72592,1009.291
1.322270870,-1.10261,0.6029804,-0.3187261,-0.0456292,0.9990474,0.1550948,-4.679615,-28.51325,-22.72592,1009.291
1.327346802,-0.8551629,0.2460468,-0.5017468,-0.04267258,0.9966261,0.1512551,-4.679615,-28.51325,-22.72592,1009.291
1.329885006,-0.9170247,0.3055357,-0.5627537,-0.04219111,0.9971386,0.1536489,-4.679615,-28.51325,-22.72592,1009.291
1.334960938,-1.164472,-0.05139785,-0.5017468,-0.04470284,1.001489,0.1541363,-4.679615,-28.51325,-22.72592,1009.291
1.340036869,-1.288196,-0.1108868,-0.6237607,-0.04165833,0.9947182,0.154604,-4.679615,-28.51325,-22.72592,1009.291
1.345112801,-1.288196,-0.4083315,-0.6847676,-0.03671227,0.9904143,0.1555479,-5.062059,-28.88643,-22.26854,1009.291
1.350188732,-1.10261,-0.765265,-0.7457745,-0.03766955,0.9894149,0.1541127,-5.062059,-28.88643,-22.26854,1009.291
1.355264664,-1.164472,-1.003221,-0.4407399,-0.03435442,0.9943349,0.1541081,-5.062059,-28.88643,-22.26854,1009.291
1.360340595,-1.040748,-1.003221,-0.5017468,-0.03380123,0.9904241,0.1512309,-5.062059,-28.88643,-22.26854,1009.291
1.365416050,-0.9170247,-1.360154,-0.5627537,-0.03611518,0.9845923,0.1574586,-5.062059,-28.88643,-22.26854,1009.291
1.370491982,-0.7314392,-1.300665,-0.6847676,-0.03085693,0.9895298,0.1560127,-5.062059,-28.88643,-22.26854,1009.291
1.375567913,-0.7314392,-1.59811,-0.6847676,-0.03474478,0.9894872,0.1579374,-5.062059,-28.88643,-22.26854,1009.291
1.380643845,-0.4839917,-1.59811,-0.6847676,-0.03324892,0.9870371,0.1531432,-5.062059,-28.88643,-22.26854,1009.291
1.385719776,-0.3602679,-1.955044,-0.7457745,-0.02740012,0.9866505,0.1550452,-5.062059,-28.88643,-22.26854,1009.292
1.390795708,-0.3602679,-1.955044,-0.8677883,-0.02730336,0.9823412,0.1646208,-5.062059,-28.88643,-22.26854,1009.292
1.395871639,-0.2984061,-2.430955,-0.9287952,-0.0194878,0.9804967,0.1631649,-5.062059,-28.88643,-22.26854,1009.292
1.400947571,-0.3602679,-2.311977,-0.8067814,-0.02787439,0.9866985,0.1622302,-5.062059,-28.88643,-22.26854,1009.292
1.406023026,-0.3602679,-2.311977,-0.8677883,-0.02397105,0.985756,0.1588681,-5.062059,-28.88643,-22.26854,1009.292
1.411101818,-0.5458536,-2.311977,-0.9287952,-0.02310414,0.9916216,0.1598276,-5.062059,-28.88643,-22.26854,1009.292
1.416174889,-0.4221298,-2.490444,-0.8067814,-0.02159213,0.9892449,0.1646119,-5.062059,-28.88643,-22.26854,1009.292
1.421250820,-0.5458536,-2.549933,-0.5627537,-0.02637941,0.9847721,0.1622255,-5.062059,-28.88643,-22.26854,1009.292
1.426326752,-0.2365442,-2.609422,-0.5627537,-0.02697173,0.9911435,0.1684569,-5.062059,-28.88643,-22.26854,1009.292
1.431402683,0.01090325,-2.549933,-0.5627537,-0.02998363,0.9959521,0.1660721,-5.062059,-28.88643,-22.26854,1009.292
1.436478615,0.01090325,-2.549933,-0.5627537,-0.03040894,0.9925286,0.1651132,-5.062059,-28.88643,-22.26854,1009.292
1.441555023,0.01090325,-2.252488,-0.4407399,-0.0201583,0.991262,0.1708359,-5.446617,-28.88343,-22.27132,1009.292
1.446630955,0.3202126,-2.311977,-0.4407399,-0.02067075,0.9927195,0.1713169,-5.446617,-28.88343,-22.27132,1009.292
1.451711178,0.3202126,-2.13351,-0.4407399,-0.02008173,0.9868608,0.1684383,-5.446617,-28.88343,-22.27132,1009.292
1.456782818,0.4439363,-2.074021,-0.3187261,-0.0185168,0.9815584,0.1727418,-5.446617,-28.88343,-22.27132,1009.292
1.461857796,0.4439363,-1.657599,-0.5017468,-0.01127315,0.9845951,0.1736848,-5.446617,-28.88343,-22.27132,1009.292
1.466933727,0.56766,-1.360154,-0.7457745,-0.01172613,0.9826289,0.1722479,-5.446617,-28.88343,-22.27132,1009.292
1.472010136,0.56766,-1.241176,-0.4407399,-0.01115107,0.9782899,0.1770331,-5.446617,-28.88343,-22.27132,1009.292
1.477086067,0.8151074,-1.06271,-0.379733,-0.01002113,0.9695202,0.1746305,-5.446617,-28.88343,-22.27132,1009.292
1.482161999,0.6295218,-0.7057762,-0.4407399,-0.003827622,0.97694,0.1774944,-5.446617,-28.88343,-22.27132,1009.292
1.487237930,0.8151074,-0.3488426,-0.1967122,-0.009696757,0.9782893,0.1741562,-5.446617,-28.88343,-22.27132,1009.292
1.489775658,0.8151074,-0.2298646,-0.1357053,-0.01396352,0.9723958,0.1760781,-5.059935,-29.64376,-21.80261,1009.292
1.494853974,1.000693,-0.05139785,-0.07469842,-0.01128864,0.98558,0.1751223,-5.059935,-29.64376,-21.80261,1009.292
1.499927521,1.062555,0.4245136,0.2303362,-0.01024429,0.9822258,0.180386,-5.059935,-29.64376,-21.80261,1009.292
1.505003929,1.124417,0.7219583,0.2913431,-0.01710499,0.9850586,0.1818403,-5.059935,-29.64376,-21.80261,1009.292
1.510079861,0.9388311,0.6624693,0.2303362,-0.01659497,0.9835901,0.1799225,-5.059935,-29.64376,-21.80261,1009.295
1.515154839,1.124417,1.078892,0.4133569,-0.01762382,0.9859593,0.1732214,-5.059935,-29.64376,-21.80261,1009.295
1.520230770,1.000693,1.316848,0.4743638,-0.01577291,0.9924179,0.1861521,-5.059935,-29.64376,-21.80261,1009.295
1.525306702,0.9388311,1.614292,0.7183915,-0.02115633,0.992716,0.1717969,-5.059935,-29.64376,-21.80261,1009.295
1.530382633,0.9388311,1.852248,0.7183915,-0.01672931,0.9908949,0.1799273,-5.059935,-29.64376,-21.80261,1009.295
1.535459042,0.8151074,1.792759,0.7183915,-0.02506539,0.9941601,0.177075,-5.059935,-29.64376,-21.80261,1009.295
1.540536881,0.56766,2.090204,0.9014122,-0.02716237,1.002414,0.1775638,-5.446629,-28.50227,-22.27708,1009.295
1.545610905,0.5057981,2.32816,0.8404053,-0.02914205,1.003813,0.1732589,-5.446629,-28.50227,-22.27708,1009.295
1.550686836,0.3202126,2.447138,0.8404053,-0.03147303,0.9984316,0.1746977,-5.446629,-28.50227,-22.27708,1009.297
1.555762768,0.3820744,2.447138,1.084433,-0.02800968,0.9950544,0.1722931,-5.446629,-28.50227,-22.27708,1009.297
1.560838699,0.5057981,2.566115,1.084433,-0.03491913,0.9997764,0.1660859,-5.446629,-28.50227,-22.27708,1009.297
1.565914154,0.56766,2.625604,1.023426,-0.03567945,0.9885908,0.1699121,-5.446629,-28.50227,-22.27708,1009.297
1.570990086,0.56766,2.744582,1.14544,-0.03816915,0.9914586,0.167525,-5.446629,-28.50227,-22.27708,1009.297
1.576066017,0.56766,2.625604,1.023426,-0.03668885,0.9905208,0.1694367,-5.446629,-28.50227,-22.27708,1009.297
1.581141949,0.5057981,2.685093,1.267454,-0.03857081,0.9865595,0.1646493,-5.446629,-28.50227,-22.27708,1009.297
1.586217880,0.6913837,2.744582,1.267454,-0.04342571,0.986001,0.1646602,-5.062059,-28.88643,-22.26854,1009.297
1.591293812,0.3820744,2.744582,1.14544,-0.03921114,0.9953511,0.1689665,-5.062059,-28.88643,-22.26854,1009.297
1.596369743,0.5057981,2.744582,1.084433,-0.04637257,0.987939,0.1689785,-5.062059,-28.88643,-22.26854,1009.297
1.601445675,0.3820744,2.447138,1.084433,-0.04344685,0.9869602,0.1627451,-5.062059,-28.88643,-22.26854,1009.297
1.606521607,0.1964888,2.387649,1.084433,-0.04551366,0.9932404,0.1598802,-5.062059,-28.88643,-22.26854,1009.297
1.611597538,-0.1128205,2.268671,1.14544,-0.04402683,0.9918046,0.1603548,-5.062059,-28.88643,-22.26854,1009.297
1.616672993,-0.3602679,1.911737,1.023426,-0.04499064,0.9913033,0.1603567,-5.062059,-28.88643,-22.26854,1009.297
1.621748924,-0.1746823,2.030715,1.023426,-0.05042882,0.9961018,0.16133,-5.062059,-28.88643,-22.26854,1009.297
1.626824856,-0.5458536,1.673781,1.206447,-0.04899074,0.9965551,0.1541432,-5.062059,-28.88643,-22.26854,1009.297
1.631900788,-0.4839917,1.435826,0.8404053,-0.05008081,1.003395,0.1589391,-5.062059,-28.88643,-22.26854,1009.297
1.636976719,-0.4839917,1.435826,0.9014122,-0.05199287,1.00088,0.152237,-5.448721,-28.8884,-22.72574,1009.297
1.642052651,-0.4839917,1.376337,0.9624191,-0.05251031,1.003371,0.1603815,-5.448721,-28.8884,-22.72574,1009.297
1.647128582,-0.6077154,0.9004251,0.9624191,-0.05578471,0.9959974,0.1579898,-5.448721,-28.8884,-22.72574,1009.297
1.652204514,-0.5458536,0.9004251,0.9014122,-0.05965134,0.9944682,0.156561,-5.448721,-28.8884,-22.72574,1009.297
1.654742718,-0.4839917,0.7814472,0.9624191,-0.05672238,0.993504,0.1522434,-5.448721,-28.8884,-22.72574,1009.297
1.659819126,-0.6077154,0.6624693,0.9014122,-0.05130139,0.9902107,0.1570181,-5.448721,-28.8884,-22.72574,1009.297
1.664894104,-0.4221298,0.6624693,1.023426,-0.0557447,0.993013,0.1498462,-5.448721,-28.8884,-22.72574,1009.297
1.669970036,-0.2365442,0.3650247,0.9014122,-0.05082887,0.9912102,0.1594122,-5.448721,-28.8884,-22.72574,1009.297
1.675045967,-0.1746823,0.2460468,1.084433,-0.05365836,0.9857662,0.1536683,-5.448721,-28.8884,-22.72574,1009.297
1.680121899,0.01090325,0.2460468,1.023426,-0.04731422,0.9849,0.1555689,-5.448721,-28.8884,-22.72574,1009.297
1.685197830,0.3820744,-0.1108868,0.9014122,-0.05413409,0.9847521,0.1493585,-4.677511,-28.50828,-22.2715,1009.297
1.690277100,0.3202126,0.06758001,0.8404053,-0.05412191,0.9842798,0.1512738,-4.677511,-28.50828,-22.2715,1009.297
1.695349693,0.56766,-0.05139785,0.8404053,-0.04968021,0.98147,0.1574879,-4.677511,-28.50828,-22.2715,1009.297
1.700425625,0.6295218,-0.1703757,0.7793984,-0.05800087,0.9842777,0.1584666,-4.677511,-28.50828,-22.2715,1009.297
1.705501557,0.8769693,-0.3488426,0.5353707,-0.05299777,0.9765391,0.1560557,-4.677511,-28.50828,-22.2715,1009.297
1.710577488,1.24814,-0.5867983,0.5353707,-0.05116778,0.9823748,0.1512659,-4.677511,-28.50828,-22.2715,1009.297
1.715652943,1.186279,-0.3488426,0.4133569,-0.04875054,0.9833992,0.1531766,-4.677511,-28.50828,-22.2715,1009.297
1.720728874,1.124417,-0.4678204,0.2913431,-0.04541749,0.9873452,0.1531714,-4.677511,-28.50828,-22.2715,1009.297
1.725804806,1.310002,-0.5867983,0.35235,-0.04591276,0.9872976,0.1479043,-4.677511,-28.50828,-22.2715,1009.297
1.730880737,1.124417,-0.4678204,0.1083223,-0.04738256,0.9882832,0.1522186,-4.677511,-28.50828,-22.2715,1009.297
1.735956669,1.186279,-0.4678204,0.1083223,-0.04058778,0.9888446,0.1488509,-4.677511,-28.50828,-22.2715,1009.297
1.741032601,1.310002,-0.4678204,0.4133569,-0.04411786,0.9956123,0.1488632,-4.677511,-28.50828,-22.2715,1009.297
1.746108532,1.124417,-0.5273094,0.1693292,-0.04118413,0.9951976,0.1526876,-4.677511,-28.50828,-22.2715,1009.297
1.751184464,0.6913837,-0.5273094,0.35235,-0.03983076,1.000543,0.1483774,-4.677511,-28.50828,-22.2715,1009.297
1.756260395,0.8769693,-0.2893536,0.4133569,-0.04562671,0.9985311,0.1512631,-4.677511,-28.50828,-22.2715,1009.297
1.761336327,1.062555,-0.1108868,0.6573845,-0.0417128,0.9971091,0.1488586,-4.677511,-28.50828,-22.2715,1009.297
1.766414642,0.8769693,-0.05139785,0.7793984,-0.03981616,1.000082,0.1517296,-4.677511,-28.50828,-22.2715,1009.297
1.771487713,0.7532455,-0.05139785,0.5353707,-0.03790145,1.001025,0.144063,-4.677511,-28.50828,-22.2715,1009.297
1.776568890,0.8769693,0.1865579,0.8404053,-0.04365915,0.9970768,0.1483841,-4.677511,-28.50828,-22.2715,1009.297
1.781639576,0.7532455,0.2460468,0.7183915,-0.03494093,0.9996772,0.1531549,-5.448709,-29.26956,-22.71998,1009.297
1.786715507,0.6295218,0.3055357,0.5353707,-0.04131605,1.002513,0.1541292,-5.448709,-29.26956,-22.71998,1009.297
1.791791439,0.5057981,0.4245136,0.5353707,-0.03646681,1.003046,0.1507659,-5.448709,-29.26956,-22.71998,1009.297
1.796872139,0.3820744,0.6029804,0.2303362,-0.04029851,1.000093,0.1541253,-5.448709,-29.26956,-22.71998,1009.298
1.801943779,0.01090325,0.5434915,0.4133569,-0.03623065,0.989872,0.1474047,-5.448709,-29.26956,-22.71998,1009.298
1.807019710,0.1964888,0.5434915,0.4133569,-0.03346056,0.998212,0.1497981,-5.448709,-29.26956,-22.71998,1009.298
1.812094688,-0.1746823,0.6029804,0.2913431,-0.03678223,0.99379,0.1512398,-5.448709,-29.26956,-22.71998,1009.298
1.817170620,-0.2984061,0.7219583,0.4743638,-0.03430391,0.9913983,0.1521905,-5.448709,-29.26956,-22.71998,1009.298
1.822246551,-0.1746823,0.9004251,0.4743638,-0.03280159,0.9889774,0.1512277,-5.448709,-29.26956,-22.71998,1009.298
1.827328205,-0.4221298,0.7219583,0.4133569,-0.03608413,0.9820949,0.1493153,-5.059944,-29.26261,-21.80837,1009.298
1.829860687,-0.2365442,0.7219583,0.2913431,-0.03425025,0.9890037,0.157457,-5.059944,-29.26261,-21.80837,1009.298
1.834936619,-0.2365442,0.8409361,0.6573845,-0.03711651,0.9865589,0.1617724,-5.059944,-29.26261,-21.80837,1009.298
1.840012550,-0.1746823,1.138381,0.7183915,-0.03671073,0.990949,0.1617742,-5.059944,-29.26261,-21.80837,1009.298
1.845088482,-0.4221298,0.7219583,0.9624191,-0.03769157,0.990898,0.1569872,-5.059944,-29.26261,-21.80837,1009.298
1.850164413,-0.4221298,0.7814472,1.023426,-0.03873929,0.9952922,0.1603448,-5.059944,-29.26261,-21.80837,1009.298
1.855240345,-0.05095861,0.7219583,0.9624191,-0.03580226,0.9943649,0.1608164,-5.059944,-29.26261,-21.80837,1009.298
1.860316277,0.01090325,0.6624693,1.267454,-0.03576482,0.9924242,0.1617729,-5.059944,-29.26261,-21.80837,1009.298
1.865392208,0.01090325,0.5434915,1.267454,-0.03629841,0.994841,0.1603389,-5.059944,-29.26261,-21.80837,1009.298
1.870467663,-0.1746823,0.7814472,1.023426,-0.03669605,0.9899604,0.1598579,-5.059944,-29.26261,-21.80837,1009.298
1.875543594,-0.2365442,0.7814472,0.9624191,-0.03477333,0.9914683,0.162249,-5.064163,-28.89141,-22.72295,1009.298
1.880619526,-0.1128205,0.6029804,1.084433,-0.03611606,0.985116,0.1622482,-5.064163,-28.89141,-22.72295,1009.298
1.885695457,-0.2984061,0.7814472,0.9014122,-0.03568099,0.988056,0.1636857,-5.064163,-28.89141,-22.72295,1009.298
1.890771389,-0.1746823,0.959914,0.9014122,-0.0355882,0.9832009,0.1655982,-5.064163,-28.89141,-22.72295,1009.298
1.895847321,-0.1128205,0.6029804,0.6573845,-0.03656993,0.9836736,0.1656008,-5.064163,-28.89141,-22.72295,1009.298
1.900923729,-0.1128205,0.6029804,0.5963776,-0.02931152,0.9851941,0.159359,-5.064163,-28.89141,-22.72295,1009.298
1.905999660,-0.4221298,0.3650247,0.7183915,-0.02986309,0.9891122,0.1631941,-5.064163,-28.89141,-22.72295,1009.298
1.911075592,-0.4839917,0.7814472,0.5353707,-0.03035432,0.989083,0.1603217,-5.064163,-28.89141,-22.72295,1009.298
1.916151524,-0.5458536,0.3650247,0.4743638,-0.02408344,0.9921052,0.1612669,-5.064163,-28.89141,-22.72295,1009.298
1.921226501,-0.4839917,0.4840025,0.5353707,-0.02847397,0.9930369,0.1641512,-5.064163,-28.89141,-22.72295,1009.298
1.926308155,-0.4221298,0.1865579,0.5353707,-0.03089613,0.9925178,0.1646353,-5.4487,-29.65071,-22.71423,1009.298
1.931378841,-0.8551629,0.5434915,0.7793984,-0.03345916,0.9998015,0.1665614,-5.4487,-29.65071,-22.71423,1009.298
1.936454773,-0.9788866,0.3650247,0.4743638,-0.03403181,1.004151,0.163213,-5.4487,-29.65071,-22.71423,1009.298
1.941530704,-0.793301,0.3055357,0.5963776,-0.03736243,1.000217,0.164655,-5.4487,-29.65071,-22.71423,1009.298
1.946608543,-0.9788866,0.2460468,0.6573845,-0.03334516,0.9934596,0.1651205,-5.4487,-29.65071,-22.71423,1009.298
1.951682568,-0.9170247,0.2460468,0.4743638,-0.03294268,0.9983624,0.1684751,-5.4487,-29.65071,-22.71423,1009.298
1.956758499,-0.9788866,0.3650247,0.4743638,-0.02992997,0.9935575,0.1713387,-5.4487,-29.65071,-22.71423,1009.298
1.961834431,-0.793301,0.4245136,0.6573845,-0.02353613,0.9897509,0.1708427,-5.4487,-29.65071,-22.71423,1009.298
1.966910362,-1.10261,0.3650247,0.7183915,-0.02691315,0.9882435,0.1713285,-5.4487,-29.65071,-22.71423,1009.298
1.971985817,-1.164472,0.3650247,0.7183915,-0.020147,0.9913135,0.1775408,-5.4487,-29.65071,-22.71423,1009.298
1.977061748,-1.350058,0.3055357,0.5963776,-0.02390528,0.9834166,0.1713186,-5.062038,-29.64874,-22.25703,1009.298
1.982137680,-1.473781,0.5434915,0.7183915,-0.02238996,0.9805272,0.1727501,-5.062038,-29.64874,-22.25703,1009.298
1.987213612,-1.288196,0.6029804,0.5353707,-0.02044442,0.9805558,0.1727456,-5.062038,-29.64874,-22.25703,1009.298
1.992289543,-1.226334,0.6029804,0.5353707,-0.02768734,0.9780504,0.17755,-5.062038,-29.64874,-22.25703,1009.298
1.994827747,-1.10261,0.6029804,0.5353707,-0.01939516,0.9766964,0.1756143,-5.062038,-29.64874,-22.25703,1009.298
1.999903679,-0.9788866,0.8409361,0.2913431,-0.02875048,0.9829022,0.1770765,-5.062038,-29.64874,-22.25703,1009.297
2.004979610,-1.040748,0.8409361,0.2303362,-0.0248732,0.9834244,0.1741944,-5.062038,-29.64874,-22.25703,1009.297
2.010055542,-1.226334,1.078892,0.1083223,-0.02728156,0.9824404,0.1775518,-5.062038,-29.64874,-22.25703,1009.297
2.015131474,-1.164472,1.078892,-0.01369151,-0.02590632,0.9873574,0.1809041,-5.062038,-29.64874,-22.25703,1009.297
2.020206451,-1.350058,1.138381,0.1083223,-0.03209571,0.9794285,0.1751664,-5.062038,-29.64874,-22.25703,1009.297
2.025282860,-1.10261,0.8409361,0.1083223,-0.02292766,0.983453,0.1741899,-5.062059,-28.88643,-22.26854,1009.297
2.030358791,-0.9170247,1.316848,0.1693292,-0.02593715,0.9882725,0.1732419,-5.062059,-28.88643,-22.26854,1009.297
2.035434723,-0.9170247,1.19787,0.1693292,-0.0240648,0.9916624,0.1670137,-5.062059,-28.88643,-22.26854,1009.297
2.040510654,-0.9788866,1.316848,0.4133569,-0.01962552,0.9888416,0.171791,-5.062059,-28.88643,-22.26854,1009.295
2.045590401,-0.9788866,1.316848,0.1693292,-0.02065115,0.9912255,0.1670056,-5.062059,-28.88643,-22.26854,1009.295
2.050662518,-0.793301,1.257359,-0.01369151,-0.02059014,0.9883366,0.171314,-5.062059,-28.88643,-22.26854,1009.295
2.055738449,-0.7314392,1.19787,-0.01369151,-0.02170298,0.9961288,0.1732371,-5.062059,-28.88643,-22.26854,1009.295
2.060817242,-0.3602679,1.078892,-0.01369151,-0.0256014,0.9965658,0.1742041,-5.062059,-28.88643,-22.26854,1009.295
2.065890312,-0.3602679,1.138381,-0.1357053,-0.0241755,0.9974915,0.1651019,-5.062059,-28.88643,-22.26854,1009.295
2.070965767,-0.4221298,1.316848,-0.01369151,-0.03098584,0.9984424,0.1751756,-5.064163,-28.89141,-22.72295,1009.295
2.076045513,-0.4221298,1.19787,-0.1357053,-0.03057191,1.002342,0.1746981,-5.064163,-28.89141,-22.72295,1009.295
2.081117630,-0.4839917,0.959914,-0.2577192,-0.03298343,1.000816,0.1708713,-5.064163,-28.89141,-22.72295,1009.295
2.086193562,-0.3602679,1.257359,-0.1357053,-0.03051076,0.9983982,0.1684695,-5.064163,-28.89141,-22.72295,1009.295
2.091269493,-0.3602679,1.19787,0.0473154,-0.03480278,0.9939729,0.1713502,-5.064163,-28.89141,-22.72295,1009.295
2.096348763,-0.2984061,1.376337,-0.07469842,-0.0294728,0.9944872,0.1646333,-5.064163,-28.89141,-22.72295,1009.295
2.101421356,-0.1746823,1.376337,-0.1357053,-0.028008,0.9945344,0.1679824,-5.064163,-28.89141,-22.72295,1009.295
2.106497288,-0.2365442,1.376337,-0.1967122,-0.02939058,0.9901117,0.1655882,-5.064163,-28.89141,-22.72295,1009.295
2.111573219,-0.4221298,1.435826,-0.07469842,-0.02398419,0.9872795,0.1670108,-5.064163,-28.89141,-22.72295,1009.295
2.116649151,-0.5458536,1.435826,-0.01369151,-0.02338057,0.9809595,0.1674844,-5.064163,-28.89141,-22.72295,1009.295
2.121724606,-0.05095861,1.376337,-0.01369151,-0.01657361,0.9810487,0.166032,-5.064152,-29.27256,-22.7172,1009.295
2.126800537,-0.3602679,1.495314,0.0473154,-0.01509001,0.9795982,0.164591,-5.064152,-29.27256,-22.7172,1009.295
2.131876469,-0.1746823,1.614292,-0.01369151,-0.01263364,0.9781619,0.1631477,-5.064152,-29.27256,-22.7172,1009.295
2.136952400,-0.1746823,1.554803,0.1083223,-0.01222947,0.9825447,0.1621916,-5.064152,-29.27256,-22.7172,1009.295
2.142028332,-0.4221298,1.495314,0.0473154,-0.01062137,0.9748,0.1655356,-5.064152,-29.27256,-22.7172,1009.295
2.147104263,-0.2984061,1.316848,0.2303362,-0.01121846,0.9806219,0.1636248,-5.064152,-29.27256,-22.7172,1009.295
2.152180195,-0.3602679,1.316848,0.1083223,-0.01514206,0.982,0.1602823,-5.064152,-29.27256,-22.7172,1009.295
2.157256126,-0.4221298,1.019403,0.0473154,-0.02295189,0.9833428,0.1598221,-5.064152,-29.27256,-22.7172,1009.295
2.159794331,-0.4221298,0.9004251,-0.1357053,-0.02453966,0.9901245,0.1579143,-5.064152,-29.27256,-22.7172,1009.295
2.164870262,-0.3602679,0.8409361,-0.1967122,-0.02554906,0.9920544,0.1574389,-5.064152,-29.27256,-22.7172,1009.297
2.169947147,-0.6695773,0.7814472,-0.5627537,-0.03052933,0.9983137,0.1574542,-4.679604,-28.89441,-22.72016,1009.297
2.175021648,-0.4839917,0.6624693,-1.111816,-0.02764685,1.000305,0.1574488,-4.679604,-28.89441,-22.72016,1009.297
2.180097580,-0.5458536,0.7219583,-1.23383,-0.0360164,1.006056,0.161303,-4.679604,-28.89441,-22.72016,1009.297
2.185173512,-0.793301,0.5434915,-1.721885,-0.03025709,1.010012,0.1579397,-4.679604,-28.89441,-22.72016,1009.297
2.190249443,-0.7314392,0.6029804,-1.538864,-0.02838643,1.013922,0.1560221,-4.679604,-28.89441,-22.72016,1009.297
2.195325375,-1.226334,0.6624693,-1.477857,-0.02789351,1.013431,0.1545839,-4.679604,-28.89441,-22.72016,1009.297
2.200404167,-1.473781,0.6624693,-1.050809,-0.03518436,1.012818,0.1522057,-4.679604,-28.89441,-22.72016,1009.297
2.205477238,-1.164472,0.9004251,-1.172823,-0.03316879,1.008944,0.1512408,-4.679604,-28.89441,-22.72016,1009.297
2.210553169,-1.288196,1.078892,-0.6237607,-0.02884095,1.011421,0.1483589,-4.679604,-28.89441,-22.72016,1009.297
2.215629101,-1.473781,1.257359,-0.1967122,-0.01934814,0.9984525,0.1540761,-5.446629,-28.50227,-22.27708,1009.297
2.220705032,-1.226334,1.673781,0.0473154,-0.02210927,0.9896255,0.1516823,-5.446629,-28.50227,-22.27708,1009.297
2.225780487,-0.9788866,1.911737,0.5963776,-0.01671587,0.987262,0.1507106,-5.446629,-28.50227,-22.27708,1009.297
2.230856419,-0.7314392,2.149693,0.9624191,-0.01662632,0.9823921,0.1507074,-5.446629,-28.50227,-22.27708,1009.297
2.235932350,-0.6077154,2.32816,1.267454,-0.01600317,0.9751055,0.1521383,-5.446629,-28.50227,-22.27708,1009.297
2.241010189,-0.4221298,2.447138,1.450474,-0.01781517,0.9677684,0.151659,-5.446629,-28.50227,-22.27708,1009.297
2.246084213,-0.2365442,2.625604,1.572488,-0.02155488,0.9599561,0.156452,-5.446629,-28.50227,-22.27708,1009.297
2.251160145,-0.1128205,2.86356,1.694502,-0.02595994,0.9608216,0.1507156,-5.446629,-28.50227,-22.27708,1009.297
2.256236076,0.134627,2.685093,1.572488,-0.02157851,0.9614317,0.1583686,-5.446629,-28.50227,-22.27708,1009.297
2.261312485,0.1964888,3.042027,1.572488,-0.02840339,0.9623166,0.1598217,-5.446629,-28.50227,-22.27708,1009.297
2.266388416,0.3202126,2.86356,1.755509,-0.03377081,0.9637429,0.165582,-5.446617,-28.88343,-22.27132,1009.297
2.271463394,0.6295218,2.923049,1.572488,-0.03972128,0.9689441,0.1564994,-5.446617,-28.88343,-22.27132,1009.297
2.276539326,0.9388311,2.923049,1.389467,-0.04866024,0.9790604,0.1589208,-5.446617,-28.88343,-22.27132,1009.297
2.281615257,0.8769693,3.161005,0.9624191,-0.05014149,0.9810494,0.1670672,-5.446617,-28.88343,-22.27132,1009.297
2.286691189,1.000693,3.101516,0.8404053,-0.05476554,0.9935841,0.1589438,-5.446617,-28.88343,-22.27132,1009.297
2.291772842,0.8769693,2.923049,0.7793984,-0.05004087,1.000938,0.156064,-5.446617,-28.88343,-22.27132,1009.297
2.296843529,1.24814,2.982538,0.6573845,-0.05624995,0.995031,0.159906,-5.446617,-28.88343,-22.27132,1009.297
2.301919460,1.000693,2.982538,0.35235,-0.05342516,0.999398,0.1522394,-5.446617,-28.88343,-22.27132,1009.297
2.307000160,0.9388311,3.101516,0.2303362,-0.04622226,1.004888,0.1555787,-5.446617,-28.88343,-22.27132,1009.297
2.312071323,0.8769693,2.982538,0.35235,-0.04815965,1.004369,0.1551039,-4.675385,-29.26561,-21.80558,1009.297
2.317147255,0.6295218,2.982538,0.4743638,-0.04902253,0.9985214,0.1565391,-4.675385,-29.26561,-21.80558,1009.297
2.322223187,0.6295218,2.804071,0.2913431,-0.04605767,0.995082,0.1469516,-4.675385,-29.26561,-21.80558,1009.297
2.327298641,1.000693,2.804071,0.4743638,-0.04948681,0.9965039,0.1483972,-4.675385,-29.26561,-21.80558,1009.295
2.329836369,0.8769693,2.86356,0.5963776,-0.04951125,0.9979759,0.1498349,-4.675385,-29.26561,-21.80558,1009.295
2.334912300,0.9388311,2.804071,0.5963776,-0.04863209,1.002842,0.1474413,-4.675385,-29.26561,-21.80558,1009.295
2.339988232,0.7532455,2.447138,0.6573845,-0.04958936,1.001842,0.1460061,-4.675385,-29.26561,-21.80558,1009.295
2.345064163,0.7532455,2.625604,0.5963776,-0.04751609,0.9955916,0.1527024,-4.675385,-29.26561,-21.80558,1009.295
2.350140095,0.6295218,2.387649,0.7793984,-0.0469963,0.9936398,0.1512632,-4.675385,-29.26561,-21.80558,1009.295
2.355216026,0.56766,2.387649,0.9624191,-0.04413335,0.9965973,0.1503006,-4.675385,-29.26561,-21.80558,1009.295
2.360292435,0.6295218,2.32816,0.9014122,-0.04016497,0.9927843,0.1536416,-4.679615,-28.51325,-22.72592,1009.295
2.365368366,0.6913837,2.32816,0.9624191,-0.04606355,0.9966385,0.1594046,-4.679615,-28.51325,-22.72592,1009.295
2.370444298,0.5057981,2.209182,0.9014122,-0.04410494,0.9956711,0.156526,-4.679615,-28.51325,-22.72592,1009.295
2.375519276,0.3820744,2.209182,0.9014122,-0.04309884,0.9942538,0.1603542,-4.679615,-28.51325,-22.72592,1009.295
2.380595207,0.3820744,2.030715,1.084433,-0.0450769,0.9956605,0.1570071,-4.679615,-28.51325,-22.72592,1009.295
2.385671616,0.4439363,1.911737,1.023426,-0.04309884,0.9942538,0.1603542,-4.679615,-28.51325,-22.72592,1009.295
2.390747547,0.3202126,1.673781,1.084433,-0.04258148,0.992291,0.1574782,-4.679615,-28.51325,-22.72592,1009.295
2.395823479,0.1964888,1.435826,1.023426,-0.04598947,0.9927536,0.1608388,-4.679615,-28.51325,-22.72592,1009.295
2.400899410,0.2583507,1.554803,0.9014122,-0.04403417,0.9922989,0.161313,-4.679615,-28.51325,-22.72592,1009.295
2.405975342,0.134627,1.376337,0.8404053,-0.04202513,0.9889223,0.1617852,-4.679615,-28.51325,-22.72592,1009.295
2.411051273,0.3202126,0.8409361,0.7793984,-0.04587385,0.9864191,0.1603557,-4.679615,-28.51325,-22.72592,1009.293
2.416127205,0.3820744,0.8409361,0.5963776,-0.04636523,0.9874447,0.1680203,-4.679615,-28.51325,-22.72592,1009.293
2.421203137,0.6295218,0.6624693,0.35235,-0.04585689,0.9864962,0.1704132,-4.679615,-28.51325,-22.72592,1009.293
2.426278591,0.6913837,0.127069,0.0473154,-0.04149888,0.9869999,0.1641774,-4.679615,-28.51325,-22.72592,1009.293
2.431354523,0.4439363,-0.1703757,-0.1967122,-0.04284895,0.9811419,0.1651348,-4.679615,-28.51325,-22.72592,1009.293
2.436430454,0.5057981,-0.5273094,-0.1357053,-0.04002263,0.9860436,0.1636945,-4.679615,-28.51325,-22.72592,1009.293
2.441506386,0.4439363,-0.7057762,-0.3187261,-0.03554665,0.9807513,0.1636809,-4.679615,-28.51325,-22.72592,1009.293
2.446582317,0.6295218,-0.9437318,-0.1357053,-0.04040888,0.9806871,0.1646499,-4.679615,-28.51325,-22.72592,1009.293
2.451658249,0.7532455,-1.360154,-0.5017468,-0.03896199,0.9817082,0.1679997,-4.679615,-28.51325,-22.72592,1009.293
2.456734181,1.062555,-1.717088,-0.3187261,-0.03992499,0.9812106,0.1684805,-4.679604,-28.89441,-22.72016,1009.293
2.461810112,1.186279,-2.014533,-0.1967122,-0.04197147,0.9865277,0.1670517,-4.679604,-28.89441,-22.72016,1009.293
2.466886044,1.124417,-2.192999,-0.1967122,-0.04008128,0.989471,0.1660914,-4.679604,-28.89441,-22.72016,1009.293
2.471961975,1.24814,-2.609422,-0.01369151,-0.03241637,0.9959126,0.1655988,-4.679604,-28.89441,-22.72016,1009.293
2.477037430,1.186279,-2.847378,0.1083223,-0.03909875,0.989002,0.1665677,-4.679604,-28.89441,-22.72016,1009.293
2.482113361,1.124417,-2.966355,-0.1357053,-0.03586657,0.9977664,0.1598608,-4.679604,-28.89441,-22.72016,1009.293
2.487189293,1.000693,-3.323289,-0.1967122,-0.03370697,0.986631,0.1646382,-4.679604,-28.89441,-22.72016,1009.293
2.492265225,0.8769693,-3.382778,-0.1967122,-0.02885369,0.9871822,0.1636695,-4.679604,-28.89441,-22.72016,1009.291
2.494803429,0.8769693,-3.323289,-0.3187261,-0.0318827,0.9929684,0.1617643,-4.679604,-28.89441,-22.72016,1009.291
2.499879360,0.9388311,-3.442267,-0.3187261,-0.02939381,0.990097,0.1636725,-4.679604,-28.89441,-22.72016,1009.291
2.504955292,1.000693,-3.382778,-0.2577192,-0.02408102,0.9921163,0.1627037,-4.6775,-28.88943,-22.26575,1009.291
2.510031223,0.6295218,-3.620734,-0.1967122,-0.02564926,0.9979313,0.1617531,-4.6775,-28.88943,-22.26575,1009.291
2.515107155,0.56766,-3.382778,-0.379733,-0.02406311,0.9911423,0.1627031,-4.6775,-28.88943,-22.26575,1009.291
2.520183087,0.6295218,-3.442267,-0.1357053,-0.02585155,0.982857,0.1655756,-4.6775,-28.88943,-22.26575,1009.291
2.525259018,0.56766,-3.382778,0.0473154,-0.02121329,0.9956232,0.1698831,-4.6775,-28.88943,-22.26575,1009.291
2.530334473,0.4439363,-3.144822,-0.01369151,-0.0237209,0.9994648,0.1674967,-4.6775,-28.88943,-22.26575,1009.291
2.535410404,0.1964888,-2.668911,0.0473154,-0.02118312,0.9936495,0.1665294,-4.6775,-28.88943,-22.26575,1009.291
2.540486336,0.134627,-2.906867,0.0473154,-0.01874709,0.9931763,0.1636499,-4.6775,-28.88943,-22.26575,1009.291
2.545562267,0.1964888,-2.549933,0.2303362,-0.02171348,0.9960811,0.167011,-4.6775,-28.88943,-22.26575,1009.291
2.550638199,0.01090325,-2.430955,0.4133569,-0.02173792,0.9975531,0.1684488,-4.6775,-28.88943,-22.26575,1009.291
2.555714131,0.07276511,-2.074021,0.35235,-0.02318401,0.9965355,0.1655779,-4.677488,-29.27059,-22.25999,1009.291
2.560790062,-0.2984061,-1.717088,0.1083223,-0.01984854,1.000492,0.1670095,-4.677488,-29.27059,-22.25999,1009.291
2.565865994,-0.5458536,-1.657599,0.4743638,-0.02563062,0.9974884,0.1674999,-4.677488,-29.27059,-22.25999,1009.291
2.570941925,-0.6077154,-1.181688,0.4743638,-0.02651537,0.9920695,0.1612725,-4.677488,-29.27059,-22.25999,1009.291
2.576017857,-0.4839917,-1.003221,0.5963776,-0.02613249,0.9984662,0.1689384,-4.677488,-29.27059,-22.25999,1009.291
2.581093311,-0.6695773,-1.003221,0.6573845,-0.02805681,0.9969509,0.1655894,-4.677488,-29.27059,-22.25999,1009.291
2.586169243,-0.8551629,-0.6462872,0.7793984,-0.02414944,0.9960269,0.164622,-4.677488,-29.27059,-22.25999,1009.291
2.591245175,-0.7314392,-0.5273094,0.6573845,-0.03047244,0.9959339,0.1646365,-4.677488,-29.27059,-22.25999,1009.291
2.596321106,-0.6695773,-0.2893536,0.6573845,-0.02844703,0.9910485,0.1588817,-4.677488,-29.27059,-22.25999,1009.291
2.601397038,-0.6077154,0.127069,0.7793984,-0.0250604,0.9931273,0.1694115,-4.677488,-29.27059,-22.25999,1009.291
2.606472969,-0.4839917,0.3055357,0.9624191,-0.02398243,0.986232,0.1574317,-5.831177,-28.88042,-22.27411,1009.291
2.611548901,-0.4839917,0.3055357,0.7183915,-0.02739535,0.9872,0.1631872,-5.831177,-28.88042,-22.27411,1009.29
2.616624832,-0.2984061,0.4840025,0.7793984,-0.02829566,0.9832935,0.1636658,-5.831177,-28.88042,-22.27411,1009.29
2.621701241,0.01090325,0.6624693,0.5963776,-0.03029009,0.9862088,0.1665457,-5.831177,-28.88042,-22.27411,1009.29
2.626777172,0.01090325,0.7814472,0.6573845,-0.03020787,0.9818333,0.1675007,-5.831177,-28.88042,-22.27411,1009.29
2.631852150,0.1964888,0.8409361,0.5353707,-0.0277874,0.9828724,0.1713272,-5.831177,-28.88042,-22.27411,1009.29
2.636928082,0.134627,1.138381,0.7183915,-0.02882036,0.9857506,0.1674999,-5.831177,-28.88042,-22.27411,1009.29
2.642004013,0.134627,1.019403,0.7183915,-0.02832752,0.9857872,0.1713302,-5.831177,-28.88042,-22.27411,1009.29
2.647079945,0.2583507,0.959914,0.5963776,-0.02912843,0.9760001,0.1670157,-5.831177,-28.88042,-22.27411,1009.29
2.652156353,0.5057981,0.8409361,0.7183915,-0.03064874,0.9799223,0.1732476,-5.062071,-28.50528,-22.27429,1009.29
2.657232285,0.3820744,1.257359,0.7183915,-0.02823062,0.980423,0.1703688,-5.062071,-28.50528,-22.27429,1009.29
2.662308216,0.3820744,0.8409361,0.5353707,-0.03217624,0.9832841,0.1699007,-5.062071,-28.50528,-22.27429,1009.29
2.664845944,0.6295218,0.7814472,0.5353707,-0.03221126,0.9852356,0.170381,-5.062071,-28.50528,-22.27429,1009.29
2.669921875,0.7532455,0.7219583,0.6573845,-0.03221045,0.9852393,0.1708599,-5.062071,-28.50528,-22.27429,1009.29
2.674997807,0.6913837,0.5434915,0.4133569,-0.03512949,0.9846653,0.1651192,-5.062071,-28.50528,-22.27429,1009.29
2.680073738,0.9388311,0.4245136,0.6573845,-0.03317015,0.984229,0.1679879,-5.062071,-28.50528,-22.27429,1009.29
2.685149193,1.062555,0.1865579,0.4743638,-0.0394516,0.9816864,0.1660851,-5.062071,-28.50528,-22.27429,1009.29
2.690225125,1.124417,-0.1703757,0.0473154,-0.04257436,0.9933788,0.1723256,-5.062071,-28.50528,-22.27429,1009.29
2.695301056,1.371864,-0.4678204,0.2913431,-0.03615042,0.988126,0.1737443,-5.062071,-28.50528,-22.27429,1009.29
2.700376988,1.310002,-0.765265,-0.01369151,-0.03609822,0.9846694,0.167516,-5.448709,-29.26956,-22.71998,1009.29
2.705452919,1.24814,-0.884243,0.1083223,-0.02783218,0.9853073,0.1713288,-5.448709,-29.26956,-22.71998,1009.29
2.710528851,1.310002,-1.122199,-0.07469842,-0.02730425,0.9828649,0.1694103,-5.448709,-29.26956,-22.71998,1009.29
2.715604782,1.186279,-1.479132,-0.1357053,-0.02686836,0.9858086,0.1713269,-5.448709,-29.26956,-22.71998,1009.29
2.720681191,1.124417,-1.59811,-0.3187261,-0.03517677,0.9876166,0.1689525,-5.448709,-29.26956,-22.71998,1009.29
2.725757122,1.371864,-1.717088,-0.4407399,-0.03095559,0.9959414,0.1665533,-5.448709,-29.26956,-22.71998,1009.29
2.730833054,1.371864,-2.13351,-0.5017468,-0.03335992,0.9949757,0.1723053,-5.448709,-29.26956,-22.71998,1009.29
2.735913754,1.186279,-2.13351,-0.379733,-0.03039507,0.9915363,0.1627179,-5.448709,-29.26956,-22.71998,1009.288
2.740983963,1.371864,-2.371466,-0.3187261,-0.02802671,0.9955046,0.1675041,-5.448709,-29.26956,-22.71998,1009.288
2.746059895,1.310002,-2.549933,-0.4407399,-0.02463502,0.9960234,0.165102,-5.448709,-29.26956,-22.71998,1009.288
2.751136303,1.000693,-2.668911,-0.6847676,-0.02400622,0.9887625,0.1698853,-5.446629,-28.50227,-22.27708,1009.288
2.756212235,1.062555,-2.609422,-0.379733,-0.02068536,0.9931808,0.1679647,-5.446629,-28.50227,-22.27708,1009.288
2.761288166,1.000693,-2.787889,-0.3187261,-0.01973938,0.9941286,0.1626949,-5.446629,-28.50227,-22.27708,1009.288
2.766364098,0.8769693,-2.906867,-0.3187261,-0.0178061,0.9951569,0.1660436,-5.446629,-28.50227,-22.27708,1009.288
2.771440029,0.56766,-2.966355,-0.379733,-0.02071707,0.9946197,0.1650921,-5.446629,-28.50227,-22.27708,1009.288
2.776515961,0.56766,-3.085333,-0.4407399,-0.02082528,0.9999324,0.1593486,-5.446629,-28.50227,-22.27708,1009.288
2.781591892,0.2583507,-3.085333,-0.379733,-0.02321161,0.9974654,0.1598314,-5.446629,-28.50227,-22.27708,1009.288
2.786667347,0.07276511,-2.966355,-0.3187261,-0.02224934,0.9974319,0.1536032,-5.446629,-28.50227,-22.27708,1009.288
2.791743278,0.07276511,-2.847378,-0.379733,-0.01874547,0.9931837,0.1646078,-5.446629,-28.50227,-22.27708,1009.288
2.796823978,-0.1746823,-2.668911,-0.1967122,-0.01690483,0.9980124,0.155507,-5.059956,-28.88145,-21.81412,1009.288
2.801895142,-0.1128205,-2.490444,-0.379733,-0.01970429,0.9916497,0.1569462,-5.059956,-28.88145,-21.81412,1009.288
2.806971073,-0.1746823,-2.490444,-0.2577192,-0.02516926,0.9973817,0.1526521,-5.059956,-28.88145,-21.81412,1009.288
2.812047005,-0.2984061,-2.252488,-0.379733,-0.01932376,0.997508,0.1579068,-5.059956,-28.88145,-21.81412,1009.288
2.817122936,-0.4839917,-1.895555,-0.5017468,-0.02323114,0.998432,0.1588743,-5.059956,-28.88145,-21.81412,1009.288
2.822198868,-0.6695773,-2.074021,-0.5017468,-0.01880325,0.9960873,0.1622151,-5.059956,-28.88145,-21.81412,1009.288
2.827274799,-0.793301,-1.657599,-0.5017468,-0.01977998,0.9955271,0.1545542,-5.059956,-28.88145,-21.81412,1009.288
2.832350731,-0.6695773,-1.419643,-0.1967122,-0.02264044,0.9920533,0.1516851,-5.059956,-28.88145,-21.81412,1009.288
2.834888935,-0.7314392,-1.300665,-0.07469842,-0.01981822,0.9974641,0.1531187,-5.059956,-28.88145,-21.81412,1009.288
2.839963913,-0.793301,-1.06271,-0.01369151,-0.01976287,0.9945495,0.1540746,-5.059956,-28.88145,-21.81412,1009.288
2.845040321,-0.9170247,-0.884243,0.1083223,-0.02074621,0.9950148,0.1531193,-5.829062,-29.2566,-21.81394,1009.288
2.850116253,-0.9788866,-0.6462872,0.2303362,-0.02080245,0.9984531,0.156953,-5.829062,-29.2566,-21.81394,1009.288
2.855192184,-1.040748,-0.765265,0.2303362,-0.02275929,0.998373,0.1502525,-5.829062,-29.2566,-21.81394,1009.288
2.860268116,-1.226334,-0.2298646,0.4133569,-0.02413864,0.993965,0.149774,-5.829062,-29.2566,-21.81394,1009.288
2.865344048,-1.226334,0.008091077,0.4133569,-0.0266097,0.9963899,0.1531337,-5.829062,-29.2566,-21.81394,1009.288
2.870419979,-1.226334,0.06758001,0.7183915,-0.02356762,0.9896077,0.1521646,-5.829062,-29.2566,-21.81394,1009.288
2.875495911,-1.226334,0.2460468,0.5353707,-0.02654781,0.9929773,0.1526525,-5.829062,-29.2566,-21.81394,1009.288
2.880571842,-1.226334,0.3650247,0.5963776,-0.02366122,0.9944592,0.1497732,-5.829062,-29.2566,-21.81394,1009.288
2.885647297,-1.164472,0.5434915,0.4743638,-0.03092931,0.9928946,0.1502679,-5.829062,-29.2566,-21.81394,1009.288
2.890723228,-1.164472,0.4840025,0.4743638,-0.03038508,0.9894708,0.147391,-5.829062,-29.2566,-21.81394,1009.288
2.895804405,-0.9170247,0.9004251,0.7183915,-0.02792548,0.9880493,0.1478634,-5.059944,-29.26261,-21.80837,1009.288
2.900875092,-0.9170247,1.019403,0.4743638,-0.03186464,0.9909397,0.1512267,-5.059944,-29.26261,-21.80837,1009.286
2.905951023,-1.040748,0.959914,0.35235,-0.04310596,0.993166,0.1455069,-5.059944,-29.26261,-21.80837,1009.286
2.911028385,-0.6695773,1.078892,0.35235,-0.0274855,0.9904841,0.146906,-5.059944,-29.26261,-21.80837,1009.286
2.916102886,-0.7314392,1.257359,0.35235,-0.03517801,0.9849724,0.1416522,-5.059944,-29.26261,-21.80837,1009.286
2.921178818,-0.7314392,1.19787,0.1083223,-0.03224671,0.9845467,0.1440398,-5.059944,-29.26261,-21.80837,1009.286
2.926254749,-0.2984061,1.19787,0.5353707,-0.03273156,0.9850742,0.1502672,-5.059944,-29.26261,-21.80837,1009.286
2.931330681,-0.4839917,1.257359,0.4133569,-0.03531646,0.9927862,0.1445308,-5.059944,-29.26261,-21.80837,1009.286
2.936406612,-0.2984061,1.19787,0.6573845,-0.03381657,0.9903544,0.1421313,-5.059944,-29.26261,-21.80837,1009.286
2.941485405,-0.4221298,1.19787,0.5353707,-0.03969232,0.9927291,0.1454987,-5.446617,-28.88343,-22.27132,1009.286
2.946557999,-0.2365442,0.959914,0.5963776,-0.04105464,0.9878708,0.1498092,-5.446617,-28.88343,-22.27132,1009.286
2.951633930,-0.1746823,1.078892,0.4743638,-0.04161341,0.9912285,0.1440654,-5.446617,-28.88343,-22.27132,1009.286
2.956709862,-0.1746823,0.7814472,0.4743638,-0.04162082,0.9922502,0.1502921,-5.446617,-28.88343,-22.27132,1009.286
2.961785793,0.2583507,0.8409361,0.5353707,-0.03812569,0.9869068,0.1454915,-5.446617,-28.88343,-22.27132,1009.286
2.966861725,0.1964888,0.6624693,0.6573845,-0.04010544,0.9888334,0.1464551,-5.446617,-28.88343,-22.27132,1009.286
2.971938610,0.3202126,0.5434915,0.7183915,-0.03673415,0.9908425,0.1478854,-5.446617,-28.88343,-22.27132,1009.286
2.977013588,0.4439363,0.6029804,0.7183915,-0.03828447,0.9956836,0.1469341,-5.446617,-28.88343,-22.27132,1009.286
2.982089996,0.5057981,0.4245136,0.6573845,-0.04413819,0.9965752,0.1474271,-5.446617,-28.88343,-22.27132,1009.284
2.987165928,0.3202126,0.5434915,0.6573845,-0.04064732,0.9927956,0.1560373,-5.446617,-28.88343,-22.27132,1009.284
2.992240906,0.56766,0.2460468,0.7793984,-0.04643754,0.9902822,0.1570069,-5.446617,-28.88343,-22.27132,1009.284
2.994779110,0.8151074,0.127069,0.7183915,-0.04298388,0.9868609,0.1488552,-5.446617,-28.88343,-22.27132,1009.284
2.999855042,0.6913837,0.008091077,0.5963776,-0.04107908,0.9893427,0.1512469,-5.446617,-28.88343,-22.27132,1009.284
3.004930973,0.7532455,-0.2893536,0.6573845,-0.04355983,0.9917236,0.1488595,-5.446617,-28.88343,-22.27132,1009.284
3.010006905,0.7532455,-0.2298646,0.5353707,-0.03813148,0.9879358,0.152676,-5.446617,-28.88343,-22.27132,1009.284
3.015082836,0.8151074,-0.3488426,0.5963776,-0.03625349,0.9913513,0.1498003,-5.446617,-28.88343,-22.27132,1009.284
3.020163536,0.8151074,-0.7057762,0.4743638,-0.03912951,0.9893898,0.1536371,-5.446617,-28.88343,-22.27132,1009.289
3.025234699,0.8769693,-0.7057762,0.4133569,-0.03865127,0.9898877,0.1541152,-5.446617,-28.88343,-22.27132,1009.289
3.030310631,1.000693,-1.360154,0.35235,-0.03616231,0.9864888,0.1507549,-5.446617,-28.88343,-22.27132,1009.289
3.035386562,1.000693,-0.884243,0.5963776,-0.03724512,0.9933621,0.1598612,-5.446617,-28.88343,-22.27132,1009.289
3.040462017,1.186279,-1.360154,0.4133569,-0.03731266,0.9967489,0.1569899,-5.446606,-29.26458,-22.26557,1009.289
3.045537949,1.062555,-1.538621,0.4743638,-0.03234133,0.9909766,0.1569749,-5.446606,-29.26458,-22.26557,1009.289
3.050613880,0.8769693,-1.360154,0.4743638,-0.03936244,1.002579,0.158914,-5.446606,-29.26458,-22.26557,1009.289
3.055689812,1.062555,-1.419643,0.4133569,-0.03868313,0.9923813,0.1617796,-5.446606,-29.26458,-22.26557,1009.289
3.060769081,0.9388311,-1.59811,0.35235,-0.04100758,0.9865016,0.1617814,-5.446606,-29.26458,-22.26557,1009.289
3.065841675,1.062555,-1.538621,0.35235,-0.03225024,0.9866415,0.1631981,-5.446606,-29.26458,-22.26557,1009.289
3.070917606,1.24814,-1.59811,0.4743638,-0.03325634,0.9880587,0.1593699,-5.446606,-29.26458,-22.26557,1009.289
3.075993538,1.124417,-1.657599,0.4133569,-0.03282376,0.9915153,0.1646392,-5.446606,-29.26458,-22.26557,1009.289
3.081069946,1.000693,-1.538621,0.5353707,-0.02830131,0.9832678,0.1603133,-5.446606,-29.26458,-22.26557,1009.289
3.086145878,1.062555,-1.538621,0.4743638,-0.03029816,0.9861721,0.1617565,-5.062071,-28.50528,-22.27429,1009.289
3.091220856,0.9388311,-1.538621,0.35235,-0.02879108,0.9843007,0.1689357,-5.062071,-28.50528,-22.27429,1009.289
3.096296787,0.7532455,-1.717088,0.4133569,-0.02597047,0.9897041,0.1694115,-5.062071,-28.50528,-22.27429,1009.289
3.101372719,0.7532455,-1.538621,0.2913431,-0.02597209,0.9896968,0.1684537,-5.062071,-28.50528,-22.27429,1009.289
3.106448650,0.6913837,-1.717088,0.2913431,-0.02152136,0.9858727,0.1693989,-5.062071,-28.50528,-22.27429,1009.29
3.111525059,0.6913837,-1.479132,0.4133569,-0.02497899,0.9887482,0.1698876,-5.062071,-28.50528,-22.27429,1009.29
3.116600990,0.6295218,-1.538621,0.2913431,-0.02352629,0.9887403,0.1660528,-5.062071,-28.50528,-22.27429,1009.29
3.121676922,0.6913837,-1.360154,0.2303362,-0.02515319,0.9979825,0.1674991,-5.062071,-28.50528,-22.27429,1009.29
3.126752853,0.5057981,-1.300665,0.35235,-0.02569,1.000385,0.1641493,-5.062071,-28.50528,-22.27429,1009.29
3.131828785,0.56766,-1.241176,0.0473154,-0.02600307,0.9916668,0.1713285,-5.062071,-28.50528,-22.27429,1009.29
3.136904717,0.3820744,-1.122199,0.2303362,-0.02551749,0.9916703,0.1708485,-5.444513,-28.87845,-21.81691,1009.29
3.141980648,0.4439363,-1.122199,0.2303362,-0.02450398,0.9892313,0.16845,-5.444513,-28.87845,-21.81691,1009.29
3.147056103,0.56766,-0.9437318,0.2913431,-0.02117585,0.9936826,0.1708397,-5.444513,-28.87845,-21.81691,1009.292
3.152132034,0.4439363,-0.7057762,0.2303362,-0.02450882,0.9892092,0.1655764,-5.444513,-28.87845,-21.81691,1009.292
3.157209873,0.4439363,-0.765265,0.1083223,-0.02456821,0.9921055,0.1622259,-5.444513,-28.87845,-21.81691,1009.292
3.162283897,0.4439363,-0.4678204,0.1083223,-0.02256255,0.9897689,0.1713194,-5.444513,-28.87845,-21.81691,1009.292
3.164821625,0.5057981,-0.5273094,0.1693292,-0.02258538,0.9912483,0.173715,-5.444513,-28.87845,-21.81691,1009.292
3.169897556,0.56766,-0.4678204,0.0473154,-0.02646985,0.9901657,0.1670183,-5.444513,-28.87845,-21.81691,1009.292
3.174973488,0.3820744,-0.2298646,0.0473154,-0.02646332,0.9896676,0.1655812,-5.444513,-28.87845,-21.81691,1009.292
3.180049896,0.6295218,-0.4083315,0.35235,-0.0260698,0.9950573,0.1689361,-5.444513,-28.87845,-21.81691,1009.292
3.185125828,0.4439363,-0.1703757,0.1693292,-0.02364602,0.9955837,0.1694098,-5.062059,-28.88643,-22.26854,1009.29
3.190201759,0.134627,0.2460468,0.1083223,-0.02449825,0.9887296,0.166534,-5.062059,-28.88643,-22.26854,1009.29
3.195276737,0.3820744,0.008091077,0.2913431,-0.02014854,0.9907787,0.1713145,-5.062059,-28.88643,-22.26854,1009.29
3.200352669,0.134627,0.5434915,0.2303362,-0.02208593,0.9902594,0.1708397,-5.062059,-28.88643,-22.26854,1009.29
3.205428600,0.3202126,0.3650247,0.1083223,-0.02155476,0.9878317,0.170837,-5.062059,-28.88643,-22.26854,1009.29
3.210505009,0.2583507,0.5434915,0.35235,-0.02307815,0.9906843,0.1646162,-5.062059,-28.88643,-22.26854,1009.29
3.215580940,0.1964888,0.6624693,0.1693292,-0.01773453,0.9917884,0.1713095,-5.062059,-28.88643,-22.26854,1009.29
3.220656872,0.1964888,0.7219583,0.2303362,-0.01960512,0.9873512,0.1679586,-5.062059,-28.88643,-22.26854,1009.29
3.225732803,0.1964888,0.7219583,0.4133569,-0.02252996,0.9878063,0.1694024,-5.062059,-28.88643,-22.26854,1009.29
3.230813503,0.3202126,0.7219583,0.4743638,-0.02458047,0.9931051,0.165579,-5.062059,-28.88643,-22.26854,1009.29
3.235884666,0.134627,0.959914,0.5963776,-0.02254456,0.9882675,0.1660503,-5.062059,-28.88643,-22.26854,1009.29
3.240960598,0.07276511,0.7814472,0.5963776,-0.02791359,0.9896865,0.1708527,-5.062059,-28.88643,-22.26854,1009.29
3.246037006,0.3820744,0.9004251,0.4743638,-0.02686183,0.9853107,0.1698898,-5.062059,-28.88643,-22.26854,1009.29
3.251111984,0.3202126,0.9004251,0.4133569,-0.02597935,0.9896637,0.1641433,-5.062059,-28.88643,-22.26854,1009.29
3.256193161,0.2583507,0.7814472,0.2913431,-0.02395329,0.9858369,0.1694045,-5.062059,-28.88643,-22.26854,1009.29
3.261263847,0.2583507,1.019403,0.35235,-0.02981677,0.987212,0.1694188,-5.062059,-28.88643,-22.26854,1009.29
3.266339779,0.4439363,1.078892,0.2913431,-0.02832833,0.9857835,0.1708513,-5.062059,-28.88643,-22.26854,1009.292
3.271415711,0.3202126,0.7219583,0.2303362,-0.02985495,0.9886215,0.1627148,-5.062059,-28.88643,-22.26854,1009.292
3.276491642,0.3202126,0.9004251,-0.01369151,-0.02401679,0.9892421,0.1689278,-5.062059,-28.88643,-22.26854,1009.292
3.281567574,0.3820744,0.7814472,0.1693292,-0.03088072,0.9920602,0.1684664,-6.215725,-29.25858,-22.27114,1009.292
3.286643505,0.3202126,0.6624693,0.1693292,-0.03180694,0.9885635,0.1588879,-6.215725,-29.25858,-22.27114,1009.292
3.291719437,0.4439363,0.6029804,0.2303362,-0.02798436,0.9930587,0.1660658,-6.215725,-29.25858,-22.27114,1009.292
3.296794891,0.5057981,0.6029804,0.2913431,-0.02792893,0.9896168,0.1617532,-6.215725,-29.25858,-22.27114,1009.292
3.301870823,0.56766,0.5434915,0.1693292,-0.02446808,0.9867559,0.1631802,-6.215725,-29.25858,-22.27114,1009.292
3.306946755,0.5057981,0.4245136,0.2303362,-0.02655934,0.9945081,0.161753,-6.215725,-29.25858,-22.27114,1009.292
3.312022686,0.5057981,0.5434915,0.1693292,-0.02556697,0.9930283,0.1574395,-6.215725,-29.25858,-22.27114,1009.292
3.317098618,0.56766,0.127069,0.2303362,-0.02804617,0.9959439,0.1612784,-6.215725,-29.25858,-22.27114,1009.292
3.322174549,0.5057981,0.2460468,0.0473154,-0.02787689,0.9872149,0.1660619,-6.215725,-29.25858,-22.27114,1009.292
3.327250481,0.56766,0.2460468,-0.07469842,-0.0299103,0.9915361,0.1617589,-6.215725,-29.25858,-22.27114,1009.292
3.329788685,0.6295218,0.1865579,0.1083223,-0.02353275,0.9887109,0.1622214,-6.602388,-29.26055,-22.72834,1009.292
3.334864616,0.56766,0.127069,0.0473154,-0.02801027,0.9934686,0.1560086,-6.602388,-29.26055,-22.72834,1009.292
3.339940548,0.56766,0.06758001,0.1083223,-0.02506759,0.9925669,0.1598327,-6.602388,-29.26055,-22.72834,1009.292
3.345016480,0.56766,-0.1108868,-0.01369151,-0.0240452,0.9901683,0.1627024,-6.602388,-29.26055,-22.72834,1009.292
3.350091934,0.2583507,-0.1703757,0.1083223,-0.02660985,0.9974447,0.1636707,-6.602388,-29.26055,-22.72834,1009.292
3.355167866,0.3820744,-0.1703757,-0.1357053,-0.02511156,0.9950055,0.1603132,-6.602388,-29.26055,-22.72834,1009.292
3.360243797,0.4439363,-0.1108868,-0.07469842,-0.02846245,0.9915062,0.1550506,-6.602388,-29.26055,-22.72834,1009.292
3.365319729,0.134627,-0.4083315,-0.1967122,-0.028003,0.9935016,0.160319,-6.602388,-29.26055,-22.72834,1009.292
3.370395660,0.4439363,-0.2298646,-0.3187261,-0.02702377,0.9935453,0.1641481,-6.602388,-29.26055,-22.72834,1009.292
3.375471592,0.07276511,-0.2893536,-0.2577192,-0.02887241,0.9881525,0.1631912,-6.602388,-29.26055,-22.72834,1009.292
3.380547524,0.07276511,-0.4083315,-0.1967122,-0.02650391,0.9910661,0.1574405,-5.826969,-28.87047,-21.36528,1009.292
3.385623455,0.1964888,-0.3488426,-0.07469842,-0.02311229,0.9921122,0.1603069,-5.826969,-28.87047,-21.36528,1009.292
3.390699387,0.134627,-0.7057762,-0.1967122,-0.02703185,0.9935086,0.1593589,-5.826969,-28.87047,-21.36528,1009.29
3.395775318,0.1964888,-0.4083315,-0.07469842,-0.02502523,0.990121,0.1583943,-5.826969,-28.87047,-21.36528,1009.29
3.400850773,-0.1128205,-0.5273094,-0.1967122,-0.02010603,0.987278,0.1593391,-5.826969,-28.87047,-21.36528,1009.29
3.405926705,0.2583507,-0.4083315,-0.07469842,-0.02167266,0.9931003,0.1593463,-5.826969,-28.87047,-21.36528,1009.29
3.411002636,0.1964888,-0.5867983,-0.01369151,-0.02301862,0.9867333,0.1574298,-5.826969,-28.87047,-21.36528,1009.29
3.416078568,0.01090325,-0.4678204,-0.07469842,-0.02418108,0.9969383,0.1564809,-5.826969,-28.87047,-21.36528,1009.29
3.421155453,0.07276511,-0.4678204,0.1083223,-0.02463648,0.9949612,0.1536072,-5.826969,-28.87047,-21.36528,1009.29
3.426230431,0.01090325,-0.4678204,-0.1357053,-0.0255865,0.993995,0.1564823,-5.059967,-28.5003,-21.81988,1009.29
3.431306362,-0.2365442,-0.4083315,-0.01369151,-0.02508624,0.9930098,0.1540859,-5.059967,-28.5003,-21.81988,1009.294
3.436382294,0.07276511,-0.4083315,0.1083223,-0.02502112,0.9896119,0.1555205,-5.059967,-28.5003,-21.81988,1009.294
3.441458702,-0.1128205,-0.4678204,0.0473154,-0.02452901,0.9891174,0.1536033,-5.059967,-28.5003,-21.81988,1009.294
3.446534634,-0.2365442,-0.5273094,-0.07469842,-0.02454208,0.9901134,0.1564775,-5.059967,-28.5003,-21.81988,1009.294
3.451609612,-0.1128205,-0.4678204,-0.1357053,-0.02211581,0.9901235,0.1531195,-5.059967,-28.5003,-21.81988,1009.294
3.456691265,0.01090325,-0.4083315,-0.07469842,-0.02459009,0.9925337,0.1545634,-5.059967,-28.5003,-21.81988,1009.294
3.461761475,-0.1128205,-0.4083315,-0.01369151,-0.02502604,0.9901173,0.1579154,-5.059967,-28.5003,-21.81988,1009.294
3.466837406,-0.2365442,-0.5273094,-0.1357053,-0.02451602,0.9886488,0.1559976,-5.059967,-28.5003,-21.81988,1009.294
3.471913815,-0.2365442,-0.3488426,-0.1967122,-0.0235652,0.9896187,0.1536014,-5.059967,-28.5003,-21.81988,1009.292
3.476989746,-0.2365442,-0.2298646,0.1083223,-0.02649577,0.9905755,0.1569612,-5.446617,-28.88343,-22.27132,1009.292
3.482065678,0.01090325,-0.2298646,0.0473154,-0.02792321,0.9891151,0.1598371,-5.446617,-28.88343,-22.27132,1009.292
3.487141609,0.1964888,-0.2893536,-0.01369151,-0.020216,0.9936382,0.1631747,-5.446617,-28.88343,-22.27132,1009.292
3.492217541,0.1964888,-0.05139785,0.0473154,-0.02111294,0.9886916,0.1550319,-5.446617,-28.88343,-22.27132,1009.292
3.497293472,0.2583507,-0.3488426,-0.1357053,-0.02615914,0.998345,0.1531339,-5.446617,-28.88343,-22.27132,1009.292
3.499831200,0.2583507,-0.1703757,0.0473154,-0.02361078,0.99205,0.1531241,-5.446617,-28.88343,-22.27132,1009.292
3.504906654,0.1964888,-0.1108868,-0.2577192,-0.01919258,0.9896611,0.1507178,-5.446617,-28.88343,-22.27132,1009.292
3.509982586,0.1964888,-0.1108868,-0.01369151,-0.02799559,0.9924799,0.1540923,-5.446617,-28.88343,-22.27132,1009.292
3.515058518,0.07276511,0.008091077,-0.01369151,-0.02751163,0.992476,0.1526544,-5.446617,-28.88343,-22.27132,1009.294
3.520134449,-0.1746823,-0.1703757,0.0473154,-0.03046341,0.9949195,0.1593677,-5.446617,-28.88343,-22.27132,1009.294
3.525210381,-0.05095861,-0.05139785,0.1083223,-0.02753446,0.9939553,0.15505,-5.446617,-28.88343,-22.27132,1009.294
3.530286312,-0.1128205,-0.05139785,0.1083223,-0.02843147,0.9895362,0.1521758,-5.446617,-28.88343,-22.27132,1009.294
3.535362244,-0.1128205,-0.2298646,0.0473154,-0.02859517,0.9988183,0.1560133,-5.446617,-28.88343,-22.27132,1009.294
3.540438652,-0.2365442,-0.1703757,0.1083223,-0.03189716,0.992375,0.1478752,-5.446617,-28.88343,-22.27132,1009.294
3.545514584,-0.05095861,-0.1108868,-0.07469842,-0.02895529,0.9914696,0.1512203,-5.446617,-28.88343,-22.27132,1009.294
3.550590515,-0.1746823,-0.1703757,-0.07469842,-0.03129362,0.9865823,0.1536173,-5.446617,-28.88343,-22.27132,1009.294
3.555665493,0.07276511,-0.2893536,0.0473154,-0.03052603,0.997801,0.1541014,-5.446617,-28.88343,-22.27132,1009.294
3.560741425,0.07276511,-0.1703757,0.0473154,-0.0327698,0.9870111,0.1488317,-5.446617,-28.88343,-22.27132,1009.294
3.565817356,-0.05095861,-0.2298646,0.2303362,-0.03186303,0.9909471,0.1521846,-5.446617,-28.88343,-22.27132,1009.294
3.570893765,0.01090325,-0.2893536,0.0473154,-0.02944006,0.9914699,0.1521793,-5.831177,-28.88042,-22.27411,1009.294
3.575969696,-0.1746823,-0.4083315,0.1693292,-0.03193306,0.9948503,0.153145,-5.831177,-28.88042,-22.27411,1009.294
3.581045628,-0.1128205,-0.2893536,0.1083223,-0.03389571,0.9957993,0.153629,-5.831177,-28.88042,-22.27411,1009.294
3.586121559,0.01090325,-0.5867983,0.2303362,-0.03243567,0.995297,0.1488361,-5.831177,-28.88042,-22.27411,1009.294
3.591197491,0.01090325,-0.4678204,0.1693292,-0.03282684,0.9904458,0.1521865,-5.831177,-28.88042,-22.27411,1009.294
3.596277237,0.134627,-0.4083315,0.1083223,-0.03581438,0.9943097,0.1536325,-5.831177,-28.88042,-22.27411,1009.296
3.601349354,0.134627,-0.5273094,0.1693292,-0.03369948,0.985082,0.153143,-5.831177,-28.88042,-22.27411,1009.296
3.606424809,0.134627,-0.5867983,-0.1357053,-0.03041445,0.9914482,0.1512237,-5.831177,-28.88042,-22.27411,1009.296
3.611500740,0.134627,-0.765265,0.0473154,-0.03084305,0.9885374,0.1536175,-5.831177,-28.88042,-22.27411,1009.296
3.616576672,0.134627,-0.884243,-0.1967122,-0.03426074,0.988956,0.151231,-5.831177,-28.88042,-22.27411,1009.296
3.621652603,0.134627,-0.9437318,-0.01369151,-0.02892439,0.990027,0.153614,-5.831165,-29.26158,-22.26835,1009.296
3.626728535,0.07276511,-0.8247541,-0.1357053,-0.03188094,0.9919211,0.1521852,-5.831165,-29.26158,-22.26835,1009.296
3.631807804,0.07276511,-1.003221,-0.1357053,-0.02893577,0.990503,0.1521775,-5.831165,-29.26158,-22.26835,1009.296
3.636880398,-0.05095861,-1.06271,-0.3187261,-0.02754988,0.994413,0.1512189,-5.831165,-29.26158,-22.26835,1009.3
3.641956329,0.2583507,-1.122199,-0.1357053,-0.03284637,0.9914124,0.1512293,-5.831165,-29.26158,-22.26835,1009.3
3.647032261,0.1964888,-1.06271,-0.01369151,-0.02551485,0.9900991,0.1564797,-5.831165,-29.26158,-22.26835,1009.3
3.652108193,0.07276511,-1.06271,-0.1967122,-0.02947016,0.992916,0.1502646,-5.831165,-29.26158,-22.26835,1009.3
3.657183647,0.01090325,-1.241176,-0.1967122,-0.03046011,0.9944068,0.1560148,-5.831165,-29.26158,-22.26835,1009.3
3.662259579,-0.05095861,-1.241176,0.1083223,-0.02752381,0.9929484,0.150739,-5.831165,-29.26158,-22.26835,1009.3
3.667335510,0.07276511,-1.241176,-0.1357053,-0.02891381,0.9895474,0.1545715,-5.444513,-28.87845,-21.81691,1009.3
3.669873715,-0.05095861,-1.300665,-0.07469842,-0.03041041,0.9914665,0.1536183,-5.444513,-28.87845,-21.81691,1009.3
3.674949646,-0.2365442,-1.181688,-0.2577192,-0.02803303,0.9944205,0.1531357,-5.444513,-28.87845,-21.81691,1009.298
3.680025578,-0.1746823,-1.06271,-0.01369151,-0.02953366,0.9963213,0.1497879,-5.444513,-28.87845,-21.81691,1009.298
3.685101509,-0.1128205,-0.9437318,-0.01369151,-0.0250488,0.9910692,0.1550425,-5.444513,-28.87845,-21.81691,1009.298
3.690177441,-0.4221298,-0.884243,-0.1967122,-0.02511399,0.9949945,0.1588765,-5.444513,-28.87845,-21.81691,1009.298
3.695253372,-0.2984061,-0.8247541,-0.07469842,-0.02994193,0.9924476,0.1536178,-5.444513,-28.87845,-21.81691,1009.298
3.700329304,-0.2984061,-0.6462872,0.0473154,-0.02553606,0.9915859,0.1598332,-5.444513,-28.87845,-21.81691,1009.298
3.705405235,-0.2365442,-0.7057762,0.1693292,-0.02707413,0.9954271,0.1555288,-5.444513,-28.87845,-21.81691,1009.298
3.710480690,-0.1746823,-0.7057762,-0.01369151,-0.02948411,0.9944358,0.1579283,-5.444513,-28.87845,-21.81691,1009.298
3.715556622,-0.1128205,-0.5867983,-0.3187261,-0.02603537,0.9915199,0.1521715,-5.444513,-28.87845,-21.81691,1009.3
3.720632553,-0.2365442,-0.4678204,-0.1967122,-0.01971332,0.992664,0.1622151,-5.444513,-28.87845,-21.81691,1009.3
3.725708485,-0.1128205,-0.3488426,-0.07469842,-0.02409063,0.9915448,0.1516881,-5.444513,-28.87845,-21.81691,1009.3
3.730784416,0.01090325,-0.3488426,0.1083223,-0.02648358,0.9901032,0.1588766,-5.444513,-28.87845,-21.81691,1009.3
3.735860348,-0.1746823,-0.1108868,-0.01369151,-0.02313666,0.9930568,0.1564761,-5.444513,-28.87845,-21.81691,1009.3
3.740936279,0.2583507,-0.1703757,-0.01369151,-0.02980282,0.9856923,0.1617551,-5.444513,-28.87845,-21.81691,1009.3
3.746012211,0.01090325,-0.1108868,0.2303362,-0.02209958,0.9896695,0.1574295,-5.444513,-28.87845,-21.81691,1009.3
3.751088143,-0.05095861,-0.05139785,0.2913431,-0.01875832,0.9925975,0.1516765,-5.444513,-28.87845,-21.81691,1009.3
3.756164074,0.07276511,0.1865579,0.1693292,-0.02014582,0.9886802,0.1516773,-5.444513,-28.87845,-21.81691,1009.3
3.761243343,-0.1746823,0.06758001,0.35235,-0.02308293,0.9901349,0.1564742,-5.444513,-28.87845,-21.81691,1009.3
3.766315460,-0.05095861,0.3055357,0.0473154,-0.02260146,0.9906474,0.158868,-5.442398,-29.25463,-21.35674,1009.3
3.771391392,-0.05095861,0.06758001,0.1693292,-0.02990773,0.9904923,0.1526587,-5.442398,-29.25463,-21.35674,1009.3
3.776468277,-0.1746823,0.2460468,0.1083223,-0.02639321,0.985237,0.1593523,-5.442398,-29.25463,-21.35674,1009.3
3.781543255,-0.1128205,0.06758001,0.0473154,-0.02996308,0.9934069,0.1517028,-5.442398,-29.25463,-21.35674,1009.3
3.786619186,0.134627,0.127069,0.0473154,-0.02788577,0.9871745,0.1607937,-5.442398,-29.25463,-21.35674,1009.3
3.791695118,-0.1746823,-0.1108868,0.1083223,-0.02266899,0.9940342,0.1559967,-5.442398,-29.25463,-21.35674,1009.3
3.796771049,0.07276511,0.008091077,0.1083223,-0.02806239,0.9963979,0.1569684,-5.442398,-29.25463,-21.35674,1009.3
3.801847458,0.07276511,0.1865579,0.1693292,-0.01962288,0.9872704,0.1574223,-5.442398,-29.25463,-21.35674,1009.298
3.806923389,0.1964888,0.06758001,-0.07469842,-0.02843808,0.9905615,0.1588814,-5.442398,-29.25463,-21.35674,1009.298
3.811998367,0.2583507,-0.05139785,-0.01369151,-0.02900587,0.9949336,0.1584065,-5.442398,-29.25463,-21.35674,1009.298
3.817074299,0.3202126,0.1865579,0.0473154,-0.02403294,0.9891686,0.1593493,-5.059956,-28.88145,-21.81412,1009.298
3.822150230,0.134627,0.008091077,0.0473154,-0.02986955,0.9890828,0.1593627,-5.059956,-28.88145,-21.81412,1009.298
3.827226162,0.134627,0.06758001,-0.01369151,-0.02310744,0.9921343,0.1631804,-5.059956,-28.88145,-21.81412,1009.298
3.832302570,0.6295218,-0.1108868,0.1693292,-0.02507486,0.9925339,0.1555224,-5.059956,-28.88145,-21.81412,1009.298
3.834840298,0.56766,-0.05139785,0.1083223,-0.0235718,0.9906441,0.160307,-5.059956,-28.88145,-21.81412,1009.298
3.839916229,0.2583507,0.127069,0.0473154,-0.02513674,0.9959465,0.1560035,-5.059956,-28.88145,-21.81412,1009.298
3.844992161,0.5057981,0.06758001,0.2303362,-0.02697643,0.9900666,0.1550463,-5.059956,-28.88145,-21.81412,1009.298
3.850068092,0.6295218,0.06758001,0.1693292,-0.02642177,0.987218,0.1636639,-5.059956,-28.88145,-21.81412,1009.298
3.855144024,0.3820744,-0.1108868,0.1083223,-0.02350838,0.9877663,0.1660522,-5.059956,-28.88145,-21.81412,1009.298
3.860219955,0.3202126,-0.1108868,0.1693292,-0.02697158,0.9900887,0.1579199,-5.059956,-28.88145,-21.81412,1009.298
3.865295410,0.4439363,0.06758001,0.1083223,-0.02156849,0.9877692,0.1626952,-5.831165,-29.26158,-22.26835,1009.298
3.870371342,0.6913837,-0.1108868,0.1083223,-0.02690081,0.9867164,0.1627069,-5.831165,-29.26158,-22.26835,1009.298
3.875447273,0.2583507,-0.1703757,0.2303362,-0.02361827,0.9935991,0.1646193,-5.831165,-29.26158,-22.26835,1009.298
3.880523205,0.2583507,-0.1108868,-0.1357053,-0.02893753,0.9915504,0.1617567,-5.831165,-29.26158,-22.26835,1009.298
3.885599136,0.134627,-0.1108868,0.1083223,-0.0280055,0.994018,0.1641507,-5.831165,-29.26158,-22.26835,1009.298
3.890675068,0.1964888,-0.05139785,-0.07469842,-0.02701805,0.9930437,0.1622321,-5.831165,-29.26158,-22.26835,1009.298
3.895750999,0.3202126,-0.1703757,-0.01369151,-0.02451536,0.9897072,0.1670135,-5.831165,-29.26158,-22.26835,1009.298
3.900827408,0.1964888,-0.3488426,0.1693292,-0.02125719,0.9975345,0.1650952,-5.831165,-29.26158,-22.26835,1009.298
3.905903339,0.2583507,-0.2298646,-0.07469842,-0.02444371,0.9858114,0.167011,-5.831165,-29.26158,-22.26835,1009.298
3.910979271,0.3820744,-0.2298646,0.2303362,-0.0284739,0.9925095,0.1588827,-4.675396,-28.88445,-21.81134,1009.298
3.916054249,0.4439363,-0.1703757,-0.01369151,-0.02360352,0.992083,0.1574344,-4.675396,-28.88445,-21.81134,1009.298
3.921130180,0.5057981,-0.3488426,0.0473154,-0.02506194,0.9925926,0.1631852,-4.675396,-28.88445,-21.81134,1009.298
3.926206112,0.3820744,-0.3488426,-0.01369151,-0.02540341,0.9848011,0.164139,-4.675396,-28.88445,-21.81134,1009.298
3.931282520,0.4439363,-0.2893536,-0.07469842,-0.02596056,0.988166,0.1593531,-4.675396,-28.88445,-21.81134,1009.298
3.936358452,0.3202126,-0.3488426,0.1693292,-0.03025346,0.9842646,0.1670234,-4.675396,-28.88445,-21.81134,1009.298
3.941434383,0.3820744,-0.4083315,0.0473154,-0.02589552,0.9852956,0.1660561,-4.675396,-28.88445,-21.81134,1009.298
3.946510315,0.3202126,-0.3488426,0.0473154,-0.02702047,0.9930326,0.1607953,-4.675396,-28.88445,-21.81134,1009.298
3.951586246,0.3202126,-0.4083315,0.1083223,-0.02503426,0.9911353,0.1636631,-4.675396,-28.88445,-21.81134,1009.298
3.956662178,0.3202126,-0.2893536,0.0473154,-0.01809377,0.983916,0.161727,-4.675396,-28.88445,-21.81134,1009.298
3.961738110,0.56766,-0.3488426,0.0473154,-0.02405826,0.9911643,0.1655766,-5.444502,-29.25961,-21.81115,1009.298
3.966814041,0.3820744,-0.3488426,0.1083223,-0.01880325,0.9960873,0.1622151,-5.444502,-29.25961,-21.81115,1009.298
3.971889496,0.2583507,-0.4083315,-0.1357053,-0.0254661,0.9882099,0.1641413,-5.444502,-29.25961,-21.81115,1009.298
3.976965427,0.07276511,-0.1108868,-0.1357053,-0.02650399,0.9915935,0.162709,-5.444502,-29.25961,-21.81115,1009.298
3.982041359,-0.1128205,-0.3488426,-0.1357053,-0.02259338,0.9906841,0.1636572,-5.444502,-29.25961,-21.81115,1009.298
3.987117290,-0.05095861,-0.1108868,-0.1357053,-0.0253684,0.9828494,0.1636588,-5.444502,-29.25961,-21.81115,1009.298
3.992193222,0.01090325,-0.1703757,-0.01369151,-0.02077807,0.9975086,0.1607837,-5.444502,-29.25961,-21.81115,1009.298
3.997269154,0.01090325,-0.3488426,-0.2577192,-0.02602502,0.9926224,0.1689345,-5.444502,-29.25961,-21.81115,1009.298
3.999807358,-0.1746823,-0.1108868,-0.2577192,-0.02693987,0.9886498,0.1607925,-5.444502,-29.25961,-21.81115,1009.298
4.004883289,0.01090325,-0.2893536,-0.3187261,-0.02509945,0.9950606,0.1674971,-5.444502,-29.25961,-21.81115,1009.298
4.009959221,-0.05095861,-0.05139785,-0.1357053,-0.02612096,0.9969355,0.1598378,-5.444502,-29.25961,-21.81115,1009.298
4.015035152,0.1964888,-0.1703757,-0.07469842,-0.02799243,0.993022,0.1612765,-5.444502,-29.25961,-21.81115,1009.298
4.020110130,0.07276511,-0.1108868,-0.3187261,-0.03287992,0.9944261,0.1632043,-5.444502,-29.25961,-21.81115,1009.298
4.025186062,0.2583507,-0.1703757,-0.1967122,-0.03376716,0.9895236,0.1608087,-5.444502,-29.25961,-21.81115,1009.298
4.030262470,0.2583507,-0.3488426,-0.2577192,-0.03713934,0.9880382,0.164168,-5.444502,-29.25961,-21.81115,1009.298
4.035338402,0.1964888,0.06758001,-0.1357053,-0.03176635,0.987165,0.1670287,-5.444502,-29.25961,-21.81115,1009.298
4.040414333,0.134627,0.008091077,-0.07469842,-0.02340898,0.9818857,0.1612591,-5.444502,-29.25961,-21.81115,1009.298
4.045490265,0.3202126,0.1865579,0.1083223,-0.02004753,0.9849055,0.1674792,-5.444502,-29.25961,-21.81115,1009.298
4.050568581,0.4439363,0.2460468,-0.1967122,-0.02110251,0.9892667,0.1665265,-5.444502,-29.25961,-21.81115,1009.298
4.055642128,0.56766,0.3055357,-0.3187261,-0.0268056,0.9818724,0.1660561,-6.217852,-28.50125,-22.73706,1009.298
4.060718060,0.56766,0.4840025,-0.379733,-0.02601775,0.9926555,0.1732448,-6.217852,-28.50125,-22.73706,1009.298
4.065793991,0.4439363,0.5434915,-0.5627537,-0.02692849,0.9881738,0.1622289,-6.217852,-28.50125,-22.73706,1009.298
4.070869446,0.5057981,0.6624693,-0.5017468,-0.02210619,0.9906949,0.1641351,-6.217852,-28.50125,-22.73706,1009.298
4.075945377,0.3820744,0.7814472,-0.4407399,-0.02854973,0.9974418,0.1670276,-6.217852,-28.50125,-22.73706,1009.298
4.081025124,0.2583507,0.7219583,-0.8067814,-0.02565653,0.9978982,0.1574427,-6.217852,-28.50125,-22.73706,1009.298
4.086097240,0.2583507,1.019403,-0.6237607,-0.02603794,0.9925636,0.1612717,-6.217852,-28.50125,-22.73706,1009.302
4.091173172,0.2583507,0.959914,-0.5627537,-0.02722896,1.00475,0.1646345,-6.217852,-28.50125,-22.73706,1009.302
4.096249104,0.2583507,1.257359,-0.4407399,-0.02617632,0.99985,0.1588819,-6.217852,-28.50125,-22.73706,1009.302
4.101325035,0.3202126,1.19787,-0.379733,-0.02523203,1.001318,0.1579228,-6.217852,-28.50125,-22.73706,1009.302
4.106401920,0.2583507,1.138381,-0.1967122,-0.02749709,0.9925421,0.1612751,-5.062059,-28.88643,-22.26854,1009.302
4.111476898,0.134627,1.19787,0.1083223,-0.02994766,0.9929493,0.1555339,-5.062059,-28.88643,-22.26854,1009.302
4.116552830,0.2583507,1.257359,-0.01369151,-0.0285048,0.993952,0.156489,-5.062059,-28.88643,-22.26854,1009.302
4.121628284,0.1964888,1.316848,0.35235,-0.03073639,0.98269,0.1531347,-5.062059,-28.88643,-22.26854,1009.302
4.126704216,0.3820744,1.257359,0.2303362,-0.03030059,0.9861611,0.1603197,-5.062059,-28.88643,-22.26854,1009.302
4.131780148,0.134627,1.19787,0.1083223,-0.03574353,0.9904102,0.153151,-5.062059,-28.88643,-22.26854,1009.302
4.136856079,-0.05095861,1.19787,-0.01369151,-0.03767689,0.9899093,0.1550708,-5.062059,-28.88643,-22.26854,1009.302
4.141933441,0.01090325,1.078892,-0.07469842,-0.03756288,0.9835674,0.1536299,-5.062059,-28.88643,-22.26854,1009.302
4.147007942,0.07276511,1.078892,-0.379733,-0.03421596,0.986521,0.1512294,-5.062059,-28.88643,-22.26854,1009.302
4.152083874,-0.1746823,1.19787,-0.1967122,-0.03080393,0.9860768,0.1502634,-5.448709,-29.26956,-22.71998,1009.302
4.157159805,-0.05095861,1.376337,-0.1967122,-0.0275719,0.995896,0.1540934,-5.448709,-29.26956,-22.71998,1009.302
4.162236214,-0.1746823,1.019403,-0.1357053,-0.03290825,0.9948249,0.1517104,-5.448709,-29.26956,-22.71998,1009.302
4.167312145,0.07276511,0.959914,-0.2577192,-0.03239177,0.9933858,0.1536241,-5.448709,-29.26956,-22.71998,1009.304
4.169849873,0.01090325,0.9004251,-0.4407399,-0.03587949,0.9977077,0.152198,-5.448709,-29.26956,-22.71998,1009.304
4.174925327,0.134627,0.959914,-0.1357053,-0.03291971,0.9958283,0.1555425,-5.448709,-29.26956,-22.71998,1009.304
4.180005074,-0.2365442,0.6029804,0.0473154,-0.03453596,1.004063,0.1526777,-5.448709,-29.26956,-22.71998,1009.304
4.185077190,-0.1128205,0.9004251,-0.01369151,-0.03253587,1.001174,0.1531503,-5.448709,-29.26956,-22.71998,1009.304
4.190153122,0.07276511,0.6029804,0.2913431,-0.03002496,0.9968195,0.152184,-5.448709,-29.26956,-22.71998,1009.304
4.195229054,0.3820744,0.4840025,0.35235,-0.02862123,1.000283,0.1564932,-5.448709,-29.26956,-22.71998,1009.304
4.200304985,0.2583507,0.5434915,0.35235,-0.0348049,0.9918524,0.1488394,-5.446617,-28.88343,-22.27132,1009.304
4.205380917,0.3202126,0.3055357,0.4743638,-0.03333928,0.9919032,0.1526675,-5.446617,-28.88343,-22.27132,1009.304
4.210456848,0.5057981,0.2460468,0.2913431,-0.03092439,0.9923893,0.147873,-5.446617,-28.88343,-22.27132,1009.304
4.215532780,0.6295218,0.127069,0.2913431,-0.03604507,0.9801616,0.1512297,-5.446617,-28.88343,-22.27132,1009.304
4.220608711,0.6295218,0.127069,0.2303362,-0.03177912,0.9860514,0.1488289,-5.446617,-28.88343,-22.27132,1009.304
4.225684166,0.8769693,0.06758001,0.1693292,-0.03695684,0.9772585,0.1555403,-5.446617,-28.88343,-22.27132,1009.304
4.230760098,0.8769693,-0.1108868,-0.07469842,-0.03548704,0.9762729,0.151226,-5.446617,-28.88343,-22.27132,1009.304
4.235836029,0.9388311,0.06758001,-0.3187261,-0.03286509,0.9923827,0.150751,-5.446617,-28.88343,-22.27132,1009.304
4.240911961,0.9388311,-0.1108868,-0.1357053,-0.02880554,0.9837072,0.1550466,-5.446617,-28.88343,-22.27132,1009.304
4.245987892,0.8769693,-0.4678204,-0.1967122,-0.03370513,0.9850562,0.1497905,-5.446617,-28.88343,-22.27132,1009.304
4.251063824,0.8769693,-0.5273094,-0.1357053,-0.03585262,0.9962467,0.152197,-5.446606,-29.26458,-22.26557,1009.304
4.256139755,0.8769693,-0.3488426,-0.1967122,-0.03048852,0.995333,0.1497895,-5.446606,-29.26458,-22.26557,1009.304
4.261216164,0.8151074,-0.5867983,-0.4407399,-0.031541,0.9991778,0.145005,-5.446606,-29.26458,-22.26557,1009.304
4.266292095,0.6295218,-0.7057762,-0.3187261,-0.02850135,0.9923846,0.1425992,-5.446606,-29.26458,-22.26557,1009.304
4.271368027,0.6913837,-0.8247541,-0.3187261,-0.03160943,1.003088,0.1469233,-5.446606,-29.26458,-22.26557,1009.304
4.276443005,0.6295218,-1.003221,-0.5017468,-0.03305551,1.002071,0.1440524,-5.446606,-29.26458,-22.26557,1009.304
4.281518936,0.56766,-0.9437318,-0.5627537,-0.03942983,1.004911,0.1455057,-5.446606,-29.26458,-22.26557,1009.304
4.286594868,0.8769693,-0.7057762,-0.6847676,-0.03258131,1.00255,0.142136,-5.446606,-29.26458,-22.26557,1009.304
4.291671276,0.6913837,-0.884243,-0.8067814,-0.03210969,1.004074,0.1493197,-5.446606,-29.26458,-22.26557,1009.304
4.296747208,0.5057981,-0.9437318,-0.7457745,-0.02086249,1.000291,0.1425865,-5.829062,-29.2566,-21.81394,1009.304
4.301823139,0.7532455,-0.9437318,-0.4407399,-0.01590182,0.9955256,0.1468825,-5.829062,-29.2566,-21.81394,1009.304
4.306899071,0.56766,-0.765265,-0.2577192,-0.02088452,1.001774,0.145461,-5.829062,-29.2566,-21.81394,1009.304
4.311975002,0.4439363,-0.6462872,-0.2577192,-0.02225573,0.9968752,0.1445033,-5.829062,-29.2566,-21.81394,1009.304
4.317050934,0.3820744,-0.6462872,-0.379733,-0.02507229,0.9914901,0.1464222,-5.829062,-29.2566,-21.81394,1009.304
4.322126865,0.3202126,-0.7057762,-0.3187261,-0.02893077,0.9894702,0.1445141,-5.829062,-29.2566,-21.81394,1009.304
4.327202320,0.1964888,-0.6462872,-0.3187261,-0.02499007,0.9871145,0.1473771,-5.829062,-29.2566,-21.81394,1009.304
4.329740048,0.1964888,-0.765265,-0.1357053,-0.0231357,0.9920057,0.146418,-5.829062,-29.2566,-21.81394,1009.304
4.334815979,0.2583507,-0.4678204,-0.2577192,-0.01877535,0.9930478,0.1468875,-5.829062,-29.2566,-21.81394,1009.304
4.339891911,0.134627,-0.7057762,-0.3187261,-0.023025,0.9861766,0.1483299,-5.829062,-29.2566,-21.81394,1009.304
4.344967842,-0.1128205,-0.6462872,-0.1967122,-0.02020763,0.9915654,0.1468899,-5.446617,-28.88343,-22.27132,1009.304
4.350043774,0.01090325,-0.4678204,-0.1967122,-0.02222482,0.9954326,0.146897,-5.446617,-28.88343,-22.27132,1009.304
4.355119705,-0.05095861,-0.4083315,0.0473154,-0.0182596,0.9910776,0.1430537,-5.446617,-28.88343,-22.27132,1009.304
4.360196114,-0.05095861,-0.1108868,-0.01369151,-0.02126174,0.9954028,0.1411476,-5.446617,-28.88343,-22.27132,1009.304
4.365272045,-0.1746823,-0.1703757,-0.1357053,-0.01878019,0.9930257,0.144014,-5.446617,-28.88343,-22.27132,1009.304
4.370347977,0.01090325,0.127069,-0.01369151,-0.01979378,0.9959921,0.151681,-5.446617,-28.88343,-22.27132,1009.304
4.375423908,0.2583507,0.127069,0.1083223,-0.02218569,0.9929719,0.1435429,-5.446617,-28.88343,-22.27132,1009.304
4.380498886,0.07276511,-0.1108868,0.2913431,-0.02418585,0.996389,0.1483389,-5.446617,-28.88343,-22.27132,1009.304
4.385574818,0.3202126,0.2460468,0.5353707,-0.02364243,0.9929615,0.144983,-5.446617,-28.88343,-22.27132,1009.304
4.390651226,0.1964888,0.008091077,0.5353707,-0.01779362,0.9925751,0.146885,-5.446617,-28.88343,-22.27132,1009.304
4.395727158,0.1964888,0.06758001,0.5353707,-0.02160901,0.9886404,0.149286,-6.213644,-28.49129,-21.82824,1009.304
4.400803089,0.2583507,-0.05139785,0.4743638,-0.02268522,0.9944882,0.1516867,-6.213644,-28.49129,-21.82824,1009.304
4.405879021,0.01090325,0.008091077,0.2303362,-0.02268426,0.9934371,0.1416286,-6.213644,-28.49129,-21.82824,1009.304
4.410954952,0.134627,0.2460468,0.1083223,-0.02255169,0.9871797,0.1512029,-6.213644,-28.49129,-21.82824,1009.302
4.416030884,-0.2365442,0.127069,-0.07469842,-0.02422578,0.9988459,0.151214,-6.213644,-28.49129,-21.82824,1009.302
4.421106815,-0.1128205,0.127069,-0.1357053,-0.026072,0.9934641,0.1516939,-6.213644,-28.49129,-21.82824,1009.302
4.426182747,-0.2365442,0.2460468,-0.1967122,-0.0246519,0.9954188,0.1497761,-6.213644,-28.49129,-21.82824,1009.302
4.431258202,-0.4839917,0.2460468,-0.1967122,-0.02171722,0.993953,0.1435424,-6.213644,-28.49129,-21.82824,1009.302
4.436334133,-0.2365442,0.3650247,-0.2577192,-0.02622579,1.001208,0.145473,-6.213644,-28.49129,-21.82824,1009.302
4.441410065,-0.3602679,0.1865579,-0.3187261,-0.024682,0.9968651,0.1478613,-5.444513,-28.87845,-21.81691,1009.302
4.446485996,-0.4221298,0.4245136,-0.1357053,-0.02805564,0.9943177,0.1397258,-5.444513,-28.87845,-21.81691,1009.302
4.451561928,-0.2984061,0.3055357,-0.01369151,-0.03001505,0.9952814,0.1421256,-5.444513,-28.87845,-21.81691,1009.302
4.456641674,-0.5458536,0.2460468,0.1083223,-0.02661689,0.9958295,0.1435549,-5.444513,-28.87845,-21.81691,1009.302
4.461713791,-0.5458536,0.4245136,0.35235,-0.03106101,0.9986282,0.135904,-5.444513,-28.87845,-21.81691,1009.302
4.466789723,-0.7314392,0.2460468,0.4133569,-0.0318979,0.9918439,0.1421278,-5.444513,-28.87845,-21.81691,1009.302
4.471865654,-0.6695773,0.06758001,0.2913431,-0.02902356,0.9943254,0.1426016,-5.444513,-28.87845,-21.81691,1009.302
4.476941586,-0.6077154,0.1865579,0.2303362,-0.02412316,0.9929801,0.1483366,-5.444513,-28.87845,-21.81691,1009.302
4.482017040,-0.4221298,0.127069,0.1693292,-0.02276736,0.9983363,0.1454632,-5.444513,-28.87845,-21.81691,1009.302
4.487092972,-0.5458536,0.127069,0.35235,-0.0270121,0.9909598,0.1445106,-5.444513,-28.87845,-21.81691,1009.302
4.492168903,-0.6077154,0.3650247,0.35235,-0.0319542,0.9958096,0.1512299,-5.831177,-28.88042,-22.27411,1009.302
4.497244835,-0.5458536,0.06758001,0.4743638,-0.0320674,1.002155,0.1531498,-5.831177,-28.88042,-22.27411,1009.302
4.499783039,-0.6077154,0.127069,0.4743638,-0.03242194,0.9953595,0.1569778,-5.831177,-28.88042,-22.27411,1009.302
4.504860401,-0.3602679,0.1865579,0.6573845,-0.0302997,0.9856374,0.1555302,-5.831177,-28.88042,-22.27411,1009.302
4.509934902,-0.2984061,-0.05139785,0.7183915,-0.03025008,0.9832245,0.1584021,-5.831177,-28.88042,-22.27411,1009.302
4.515010834,-0.1128205,0.3650247,0.7793984,-0.03024692,0.9837666,0.1655863,-5.831177,-28.88042,-22.27411,1009.302
4.520086765,-0.1128205,0.06758001,0.7183915,-0.0301744,0.979347,0.1607941,-5.831177,-28.88042,-22.27411,1009.302
4.525162697,-0.05095861,0.06758001,0.4743638,-0.02818253,0.9774754,0.1670144,-5.831177,-28.88042,-22.27411,1009.302
4.530238629,-0.05095861,0.06758001,0.4133569,-0.03360265,0.9802451,0.1574501,-5.831177,-28.88042,-22.27411,1009.302
4.535314083,-0.05095861,0.127069,0.2303362,-0.03598994,0.9788292,0.1679911,-5.831177,-28.88042,-22.27411,1009.304
4.540390015,-0.1746823,-0.2298646,0.1083223,-0.0345821,0.9817836,0.1694264,-6.217829,-29.26355,-22.72555,1009.304
4.545465946,-0.05095861,-0.1108868,0.0473154,-0.03258114,0.9783702,0.1651094,-6.217829,-29.26355,-22.72555,1009.304
4.550541878,0.1964888,-0.1108868,0.1083223,-0.03132959,0.989585,0.1641556,-6.217829,-29.26355,-22.72555,1009.304
4.555617809,0.1964888,-0.1108868,-0.2577192,-0.03515716,0.9861226,0.1646412,-6.217829,-29.26355,-22.72555,1009.304
4.560693741,0.56766,-0.05139785,-0.1967122,-0.03146466,0.9963588,0.158413,-6.217829,-29.26355,-22.72555,1009.304
4.565769673,0.5057981,-0.3488426,-0.01369151,-0.03486862,0.9968398,0.1641682,-6.217829,-29.26355,-22.72555,1009.304
4.570845604,0.5057981,-0.2298646,-0.01369151,-0.03190627,0.9939167,0.1584125,-6.217829,-29.26355,-22.72555,1009.304
4.575921536,0.5057981,-0.3488426,0.0473154,-0.03203092,1.001266,0.1641644,-6.217829,-29.26355,-22.72555,1009.304
4.580997467,0.6295218,-0.2893536,0.0473154,-0.03149315,0.9978124,0.1574561,-6.217829,-29.26355,-22.72555,1009.304
4.586073399,0.6913837,-0.3488426,0.0473154,-0.0319625,0.997355,0.1622462,-6.217829,-29.26355,-22.72555,1009.304
4.591148853,0.3820744,-0.2893536,0.0473154,-0.02960868,1.001257,0.1584118,-5.444502,-29.25961,-21.81115,1009.304
4.596224785,0.4439363,-0.1108868,0.2303362,-0.03003318,0.9978375,0.1579317,-5.444502,-29.25961,-21.81115,1009.304
4.601300717,0.2583507,-0.2893536,0.2303362,-0.02947588,0.9934177,0.1521806,-5.444502,-29.25961,-21.81115,1009.304
4.606376648,0.01090325,0.008091077,0.2913431,-0.03054328,0.9998333,0.165118,-5.444502,-29.25961,-21.81115,1009.304
4.611452580,-0.1128205,0.06758001,0.2913431,-0.02993636,0.9930007,0.1622388,-5.444502,-29.25961,-21.81115,1009.304
4.616528511,-0.3602679,0.06758001,0.35235,-0.02806085,0.9969326,0.1631948,-5.444502,-29.25961,-21.81115,1009.306
4.621604920,-0.4221298,0.2460468,0.4133569,-0.03480255,0.9923908,0.1555447,-5.444502,-29.25961,-21.81115,1009.306
4.626680851,-0.3602679,0.1865579,0.1083223,-0.03049923,0.9968674,0.1593689,-5.444502,-29.25961,-21.81115,1009.306
4.631756783,-0.4221298,0.6624693,0.2913431,-0.03763952,0.9884961,0.1612959,-5.444502,-29.25961,-21.81115,1009.306
4.636831761,-0.5458536,0.4245136,0.1693292,-0.03087896,0.9910128,0.1588873,-5.448709,-29.26956,-22.71998,1009.306
4.641907692,-0.4839917,0.6029804,0.2913431,-0.03184035,0.9905225,0.160326,-5.448709,-29.26956,-22.71998,1009.306
4.646983624,-0.6077154,0.6624693,0.1693292,-0.03430405,0.992453,0.1627274,-5.448709,-29.26956,-22.71998,1009.306
4.652060032,-0.6077154,0.8409361,0.1083223,-0.03177596,0.9865935,0.1560131,-5.448709,-29.26956,-22.71998,1009.306
4.657135964,-0.4839917,0.959914,0.0473154,-0.03466183,0.9856428,0.1646398,-5.448709,-29.26956,-22.71998,1009.306
4.662211895,-0.6077154,0.8409361,0.0473154,-0.03230471,0.9890323,0.1574526,-5.448709,-29.26956,-22.71998,1009.306
4.667287827,-0.6077154,1.257359,0.2303362,-0.03075607,0.9847113,0.1627145,-5.448709,-29.26956,-22.71998,1009.306
4.669825554,-0.4839917,1.138381,0.0473154,-0.02697158,0.9900887,0.1579199,-5.448709,-29.26956,-22.71998,1009.306
4.674901486,-0.3602679,1.19787,0.0473154,-0.03083983,0.9885522,0.1555332,-5.448709,-29.26956,-22.71998,1009.306
4.679977417,-0.2365442,1.316848,0.1693292,-0.02828347,0.9828212,0.1655812,-5.448709,-29.26956,-22.71998,1009.306
4.685053349,-0.4221298,1.316848,0.1693292,-0.03330603,0.990999,0.1617664,-5.446606,-29.26458,-22.26557,1009.306
4.690128803,-0.6077154,1.376337,0.1693292,-0.0328253,0.9909805,0.1584128,-5.446606,-29.26458,-22.26557,1009.306
4.695204735,-0.4221298,1.19787,0.1083223,-0.03475616,0.9899632,0.1565009,-5.446606,-29.26458,-22.26557,1009.306
4.700280667,-0.6077154,1.554803,0.2303362,-0.03021506,0.9812729,0.1579219,-5.446606,-29.26458,-22.26557,1009.306
4.705361366,-0.4839917,1.316848,0.2913431,-0.0323511,0.99146,0.1564963,-5.446606,-29.26458,-22.26557,1009.306
4.710432530,-0.4221298,1.435826,0.1693292,-0.0313116,0.9880837,0.1588865,-5.446606,-29.26458,-22.26557,1009.306
4.715508461,-0.1746823,1.257359,0.2303362,-0.03922803,0.9947466,0.1536406,-5.446606,-29.26458,-22.26557,1009.306
4.720584870,-0.1746823,1.376337,0.1693292,-0.03876602,0.9956984,0.1498088,-5.446606,-29.26458,-22.26557,1009.306
4.725660801,-0.1746823,1.257359,0.2913431,-0.03433004,0.9933903,0.1579388,-5.446606,-29.26458,-22.26557,1009.306
4.730736733,-0.2984061,1.316848,0.1693292,-0.04166486,0.9952162,0.1560411,-5.446606,-29.26458,-22.26557,1009.306
4.735817433,-0.2365442,1.138381,0.0473154,-0.03426808,0.9894503,0.1521892,-5.444525,-28.4973,-21.82266,1009.306
4.740888596,-0.1128205,1.138381,0.2303362,-0.03815432,0.9894151,0.1550716,-5.444525,-28.4973,-21.82266,1009.306
4.745963574,-0.1746823,1.078892,0.1083223,-0.03812664,0.9879578,0.1555496,-5.444525,-28.4973,-21.82266,1009.306
4.751039982,-0.05095861,0.959914,-0.07469842,-0.03517331,0.9860491,0.1550627,-5.444525,-28.4973,-21.82266,1009.306
4.756115914,-0.1128205,0.7219583,-0.1357053,-0.03669105,0.9889276,0.1521944,-5.444525,-28.4973,-21.82266,1009.306
4.761191845,0.07276511,0.9004251,-0.07469842,-0.03378501,0.9899702,0.1555409,-5.444525,-28.4973,-21.82266,1009.306
4.766267776,0.01090325,0.8409361,-0.1967122,-0.03528644,0.9918673,0.1517141,-5.444525,-28.4973,-21.82266,1009.306
4.771343708,-0.1128205,0.5434915,-0.07469842,-0.02746435,0.9895247,0.1488211,-5.444525,-28.4973,-21.82266,1009.306
4.776419640,0.01090325,0.4245136,-0.2577192,-0.02995662,0.9934363,0.1555342,-5.444525,-28.4973,-21.82266,1009.306
4.781498432,-0.1746823,0.6029804,-0.1357053,-0.03387038,0.9938036,0.1474017,-5.829062,-29.2566,-21.81394,1009.31
4.786571503,0.01090325,0.3055357,-0.1967122,-0.03233304,0.9894312,0.1459587,-5.829062,-29.2566,-21.81394,1009.31
4.791646957,-0.05095861,0.3650247,-0.1357053,-0.03290664,0.9948323,0.1526683,-5.829062,-29.2566,-21.81394,1009.31
4.796725273,0.1964888,0.2460468,-0.1357053,-0.03620056,0.9884257,0.1493194,-5.829062,-29.2566,-21.81394,1009.31
4.801798820,0.01090325,0.3650247,0.0473154,-0.03146782,0.9958167,0.1512288,-5.829062,-29.2566,-21.81394,1009.31
4.806874752,-0.05095861,0.008091077,-0.1357053,-0.0333434,0.9924123,0.1555413,-5.829062,-29.2566,-21.81394,1009.31
4.811950684,0.134627,0.4245136,-0.1357053,-0.02753269,0.9929079,0.1454709,-5.829062,-29.2566,-21.81394,1009.31
4.817026615,0.1964888,0.008091077,-0.1967122,-0.02809088,0.9978515,0.1560115,-5.829062,-29.2566,-21.81394,1009.31
4.822102547,-0.05095861,0.06758001,-0.01369151,-0.02848843,0.9924434,0.150262,-5.829062,-29.2566,-21.81394,1009.312
4.827178478,0.2583507,0.008091077,-0.1357053,-0.02614445,0.9973564,0.1512175,-5.829062,-29.2566,-21.81394,1009.312
4.832254410,0.1964888,0.1865579,-0.07469842,-0.02507809,0.9925191,0.1536067,-5.448709,-29.26956,-22.71998,1009.312
4.834792614,0.134627,0.127069,0.0473154,-0.02459978,0.9924896,0.1488163,-5.448709,-29.26956,-22.71998,1009.312
4.839868545,0.134627,0.127069,-0.01369151,-0.02221198,0.9960188,0.1598283,-5.448709,-29.26956,-22.71998,1009.312
4.844943523,0.07276511,0.4840025,-0.1357053,-0.02071281,0.9930559,0.1516813,-5.448709,-29.26956,-22.71998,1009.312
4.850019932,0.134627,0.2460468,-0.2577192,-0.01718038,0.9868265,0.1583742,-5.448709,-29.26956,-22.71998,1009.312
4.855095863,0.2583507,0.5434915,-0.1967122,-0.02260623,0.990098,0.1507259,-5.448709,-29.26956,-22.71998,1009.312
4.860171795,0.2583507,0.3055357,-0.01369151,-0.0177945,0.9930988,0.1516746,-5.448709,-29.26956,-22.71998,1009.312
4.865247726,0.3820744,0.6624693,-0.3187261,-0.02410693,0.9925261,0.1526466,-5.448709,-29.26956,-22.71998,1009.31
4.870323658,0.3202126,0.4840025,-0.379733,-0.02067376,0.9911226,0.1535957,-5.448709,-29.26956,-22.71998,1009.31
4.875399590,0.134627,0.6029804,-0.379733,-0.02166047,0.992628,0.1612617,-5.448709,-29.26956,-22.71998,1009.31
4.880475521,0.01090325,0.959914,-0.2577192,-0.01964886,0.9882076,0.1526337,-5.831188,-28.49927,-22.27986,1009.31
4.885551453,0.07276511,0.8409361,-0.4407399,-0.02116014,0.9911155,0.1535968,-5.831188,-28.49927,-22.27986,1009.31
4.890627384,0.134627,1.078892,-0.1967122,-0.02166774,0.992595,0.1569513,-5.831188,-28.49927,-22.27986,1009.31
4.895703316,0.1964888,1.138381,-0.1967122,-0.01288096,0.9902301,0.1492669,-5.831188,-28.49927,-22.27986,1009.31
4.900778770,0.01090325,0.9004251,-0.01369151,-0.02027613,0.9960033,0.1540767,-5.831188,-28.49927,-22.27986,1009.31
4.905854702,0.134627,1.316848,0.0473154,-0.01869239,0.9892033,0.1535899,-5.831188,-28.49927,-22.27986,1009.308
4.910930634,-0.1746823,1.19787,-0.01369151,-0.02467723,0.9974146,0.1560034,-5.831188,-28.49927,-22.27986,1009.308
4.916006565,0.01090325,1.257359,-0.07469842,-0.02016124,0.9891378,0.1478462,-5.831188,-28.49927,-22.27986,1009.308
4.921082497,0.01090325,1.078892,-0.01369151,-0.0197962,0.9959811,0.1502442,-5.831188,-28.49927,-22.27986,1009.308
4.926162720,-0.1746823,1.316848,0.1083223,-0.02173197,0.9954692,0.1507272,-5.829073,-28.87545,-21.81969,1009.308
4.931234360,-0.2365442,1.257359,0.1693292,-0.02017923,0.9906392,0.1531153,-5.829073,-28.87545,-21.81969,1009.308
4.936310291,-0.1746823,1.376337,0.1083223,-0.02216059,0.9925584,0.1531211,-5.829073,-28.87545,-21.81969,1009.308
4.941386223,-0.3602679,1.435826,0.1693292,-0.01922679,0.9916164,0.151677,-5.829073,-28.87545,-21.81969,1009.308
4.946462154,-0.1128205,1.376337,0.1693292,-0.0216905,0.9935469,0.1540784,-5.829073,-28.87545,-21.81969,1009.308
4.951537609,-0.2984061,1.376337,0.1693292,-0.02366856,0.9949535,0.1507314,-5.829073,-28.87545,-21.81969,1009.308
4.956613541,-0.1746823,1.078892,0.2913431,-0.02560595,0.9944342,0.1502566,-5.829073,-28.87545,-21.81969,1009.308
4.961689472,-0.1746823,1.376337,-0.01369151,-0.02695763,0.988569,0.1502561,-5.829073,-28.87545,-21.81969,1009.308
4.966765404,-0.2365442,1.435826,0.1083223,-0.02306663,0.9891536,0.1555157,-5.829073,-28.87545,-21.81969,1009.308
4.971841335,-0.2984061,1.138381,0.2913431,-0.02102903,0.983796,0.1516763,-5.829073,-28.87545,-21.81969,1009.308
4.976922035,-0.2984061,1.138381,0.0473154,-0.02453797,0.9896044,0.1536036,-5.444513,-28.87845,-21.81691,1009.308
4.981993675,-0.1128205,0.8409361,0.0473154,-0.02168074,0.9930636,0.154557,-5.444513,-28.87845,-21.81691,1009.308
4.987069607,-0.1746823,1.019403,0.1083223,-0.02267957,0.9945139,0.1550392,-5.444513,-28.87845,-21.81691,1009.308
4.992145538,-0.1746823,1.257359,-0.01369151,-0.02699999,0.9910149,0.1516945,-5.444513,-28.87845,-21.81691,1009.308
4.997221470,0.01090325,0.9004251,0.0473154,-0.0280135,0.9934539,0.1540929,-5.444513,-28.87845,-21.81691,1009.308
4.999758720,-0.05095861,0.9004251,0.1693292,-0.02901894,0.9959296,0.1612807,-5.444513,-28.87845,-21.81691,1009.308
5.004835129,-0.1746823,0.6624693,0.2913431,-0.02556689,0.992501,0.152171,-5.444513,-28.87845,-21.81691,1009.308
5.009910583,-0.1128205,0.7219583,0.2303362,-0.02754019,0.9944571,0.156966,-5.444513,-28.87845,-21.81691,1009.308
5.014986515,-0.05095861,0.4245136,0.1083223,-0.02748806,0.9915279,0.1560062,-5.444513,-28.87845,-21.81691,1009.308
5.020062447,-0.05095861,0.6029804,0.2303362,-0.02604109,0.9920216,0.1540875,-5.444513,-28.87845,-21.81691,1009.308
5.025138378,-0.1128205,0.6029804,0.0473154,-0.02890082,0.9890788,0.1569658,-5.829062,-29.2566,-21.81394,1009.308
5.030214310,0.07276511,0.4840025,0.0473154,-0.02552623,0.9905751,0.1550433,-5.829062,-29.2566,-21.81394,1009.308
5.035290241,-0.05095861,0.5434915,-0.07469842,-0.02941892,0.9905105,0.1540944,-5.829062,-29.2566,-21.81394,1009.308
5.040366173,-0.05095861,0.4840025,-0.01369151,-0.02269498,0.9949715,0.1512081,-5.829062,-29.2566,-21.81394,1009.308
5.045442104,-0.2365442,0.4245136,-0.1967122,-0.02699514,0.991037,0.154568,-5.829062,-29.2566,-21.81394,1009.308
5.050518513,0.07276511,0.1865579,-0.07469842,-0.02945797,0.9924438,0.1521799,-5.829062,-29.2566,-21.81394,1009.308
5.055593491,-0.1746823,0.2460468,-0.1357053,-0.02363604,0.9935182,0.1540829,-5.829062,-29.2566,-21.81394,1009.308
5.060669422,0.01090325,0.2460468,-0.1357053,-0.02613234,0.9974115,0.1584014,-5.829062,-29.2566,-21.81394,1009.308
5.065745354,-0.1128205,0.127069,0.0473154,-0.02513256,0.99491,0.1478612,-5.829062,-29.2566,-21.81394,1009.308
5.070821285,-0.05095861,0.008091077,-0.07469842,-0.02416074,0.9959754,0.157917,-5.448709,-29.26956,-22.71998,1009.308
5.075897217,-0.05095861,0.1865579,-0.01369151,-0.02709931,0.9963681,0.1512191,-5.448709,-29.26956,-22.71998,1009.308
5.080973625,0.07276511,-0.05139785,0.1083223,-0.02659259,0.9954122,0.1526541,-5.448709,-29.26956,-22.71998,1009.308
5.086049557,-0.2365442,0.06758001,0.1083223,-0.02849746,0.9934577,0.1555308,-5.448709,-29.26956,-22.71998,1009.308
5.091125488,-0.1746823,0.008091077,0.0473154,-0.02848205,0.9930001,0.1593619,-5.448709,-29.26956,-22.71998,1009.308
5.096201420,-0.2984061,0.127069,0.1083223,-0.02452747,0.9896522,0.1598296,-5.448709,-29.26956,-22.71998,1009.308
5.101277351,-0.2365442,0.008091077,0.2303362,-0.03039903,0.9909905,0.1550547,-5.448709,-29.26956,-22.71998,1009.308
5.106352329,-0.2984061,0.127069,0.1693292,-0.02655846,0.9939843,0.1569635,-5.448709,-29.26956,-22.71998,1009.308
5.111428738,-0.2984061,0.008091077,0.1083223,-0.02651441,0.9910184,0.1512145,-5.448709,-29.26956,-22.71998,1009.308
5.116504669,-0.3602679,0.008091077,0.1083223,-0.02646882,0.9885871,0.1516917,-5.448709,-29.26956,-22.71998,1009.308
5.121580601,-0.4221298,0.127069,0.2303362,-0.02703266,0.9935049,0.15888,-5.444513,-28.87845,-21.81691,1009.308
5.126656532,-0.2365442,-0.05139785,0.2303362,-0.0294303,0.9909865,0.1526579,-5.444513,-28.87845,-21.81691,1009.308
5.131732464,-0.1746823,0.1865579,0.2303362,-0.02111867,0.9891933,0.156948,-5.444513,-28.87845,-21.81691,1009.308
5.136808395,-0.2984061,0.2460468,0.1083223,-0.0255898,0.9945077,0.1598351,-5.444513,-28.87845,-21.81691,1009.308
5.141884327,-0.1128205,0.127069,0.2303362,-0.03288065,0.993895,0.1574569,-5.444513,-28.87845,-21.81691,1009.308
5.146960259,-0.3602679,0.008091077,-0.1357053,-0.0294336,0.9914992,0.1560107,-5.444513,-28.87845,-21.81691,1009.308
5.152036190,-0.2365442,0.127069,-0.01369151,-0.02561659,0.9954413,0.1545676,-5.444513,-28.87845,-21.81691,1009.308
5.157116890,-0.6077154,0.2460468,0.0473154,-0.02991837,0.9914994,0.1569697,-5.444513,-28.87845,-21.81691,1009.308
5.162187576,-0.2984061,0.3055357,0.1083223,-0.02891543,0.98954,0.1536137,-5.444513,-28.87845,-21.81691,1009.308
5.164725304,-0.2984061,0.2460468,-0.01369151,-0.02554414,0.9915491,0.1550439,-5.444513,-28.87845,-21.81691,1009.308
5.172339439,-0.2984061,0.4245136,0.0473154,-0.02651199,0.9910294,0.1526512,-5.831188,-28.49927,-22.27986,1009.308
5.174877167,-0.4221298,0.4245136,0.1083223,-0.02746685,0.9900411,0.1526528,-5.831188,-28.49927,-22.27986,1009.308
5.179953575,-0.2984061,0.2460468,0.1693292,-0.02657388,0.994442,0.1531324,-5.831188,-28.49927,-22.27986,1009.308
5.185029984,-0.05095861,0.2460468,0.0473154,-0.0299045,0.9905071,0.1545744,-5.831188,-28.49927,-22.27986,1009.308
5.190105438,-0.2365442,0.2460468,-0.07469842,-0.03041283,0.9914556,0.1521815,-5.831188,-28.49927,-22.27986,1009.308
5.195181370,-0.2984061,0.1865579,0.0473154,-0.02940842,0.9905583,0.1603204,-5.831188,-28.49927,-22.27986,1009.308
5.200257301,-0.2984061,0.4840025,0.1083223,-0.02941561,0.9899979,0.1507416,-5.831188,-28.49927,-22.27986,1009.308
5.205333233,0.01090325,0.3055357,0.0473154,-0.02796711,0.9910263,0.1550492,-5.831188,-28.49927,-22.27986,1009.308
5.210408688,-0.1746823,0.1865579,0.1083223,-0.02847228,0.9925169,0.1598405,-5.831188,-28.49927,-22.27986,1009.308
5.215485096,-0.1128205,0.4840025,0.0473154,-0.0303185,0.9871351,0.1603204,-5.831188,-28.49927,-22.27986,1009.308
5.220560551,-0.3602679,0.3055357,0.1693292,-0.02886573,0.9865997,0.1512171,-5.831188,-28.49927,-22.27986,1009.308
5.225636482,-0.1128205,0.3055357,0.1083223,-0.03091147,0.992448,0.1555358,-5.831188,-28.49927,-22.27986,1009.308
5.230712414,0.01090325,0.1865579,0.2303362,-0.03149234,0.9978161,0.157935,-5.831188,-28.49927,-22.27986,1009.308
5.235788345,-0.2365442,0.1865579,0.0473154,-0.0309001,0.9919721,0.1569722,-5.831188,-28.49927,-22.27986,1009.308
5.240864277,-0.1128205,0.3650247,-0.01369151,-0.03190869,0.9939057,0.1569757,-5.831188,-28.49927,-22.27986,1009.308
5.245940208,0.01090325,0.1865579,0.1693292,-0.03327175,0.9885164,0.1555388,-5.831188,-28.49927,-22.27986,1009.308
5.251016140,-0.1746823,0.3650247,0.1083223,-0.03149638,0.9977977,0.1555404,-5.831188,-28.49927,-22.27986,1009.308
5.256096840,-0.1128205,0.1865579,-0.01369151,-0.02750355,0.9925128,0.1574437,-5.831188,-28.49927,-22.27986,1009.308
5.261167526,-0.1746823,0.2460468,-0.01369151,-0.02855685,0.996354,0.1521803,-5.831188,-28.49927,-22.27986,1009.308
5.266243458,-0.05095861,0.2460468,0.2303362,-0.03035917,0.9890609,0.1574481,-5.059944,-29.26261,-21.80837,1009.308
5.271319389,-0.05095861,0.1865579,0.1693292,-0.0342421,0.9885131,0.1569778,-5.059944,-29.26261,-21.80837,1009.308
5.276395321,-0.2365442,0.3055357,-0.01369151,-0.03425597,0.9895054,0.159373,-5.059944,-29.26261,-21.80837,1009.308
5.281471253,-0.1128205,0.4245136,0.0473154,-0.03127901,0.9861211,0.1569695,-5.059944,-29.26261,-21.80837,1009.308
5.286547184,-0.2365442,0.3055357,0.0473154,-0.03178242,0.9865642,0.1521817,-5.059944,-29.26261,-21.80837,1009.308
5.291623116,-0.2365442,0.3055357,0.1083223,-0.02999817,0.9958859,0.1574515,-5.059944,-29.26261,-21.80837,1009.308
