Time (s),Gyroscope X (deg/s),Gyroscope Y (deg/s),Gyroscope Z (deg/s),Accelerometer X (g),Accelerometer Y (g),Accelerometer Z (g),Magnetometer X (uT),Magnetometer Y (uT),Magnetometer Z (uT),Barometer (hPa)
0.004195213,-0.01517372,0.06058872,-0.03046751,0.4194044,-0.04682748,0.9170941,-22.02479,6.592311,-63.20399,1008.882
0.009125710,-0.07639774,-0.05938844,-0.03046751,0.4155062,-0.04539907,0.9161634,-22.02479,6.592311,-63.20399,1008.884
0.014051437,0.1072743,0.06058872,0.09137797,0.4159957,-0.04635911,0.9147198,-22.02479,6.592311,-63.20399,1008.884
0.018981457,-0.01517372,0.0006001405,0.03045522,0.4189131,-0.04730171,0.9127945,-22.02479,6.592311,-63.20399,1008.884
0.023911476,0.1072743,0.1805659,-0.03046751,0.4198537,-0.04341971,0.9109285,-22.02479,6.592311,-63.20399,1008.884
0.028841972,0.04605031,-0.05938844,-0.09139025,0.4189002,-0.04488865,0.9147313,-22.02479,6.592311,-63.20399,1008.884
0.033771992,-0.07639774,0.0006001405,0.03045522,0.4159898,-0.04635064,0.9118564,-22.02479,6.592311,-63.20399,1008.884
0.038702011,0.1684983,0.06058872,0.03045522,0.4183809,-0.04149153,0.9099991,-22.02479,6.592311,-63.20399,1008.884
0.043632030,0.1684983,-0.1793656,-0.152313,0.4159937,-0.04635629,0.9137653,-22.02479,6.592311,-63.20399,1008.884
0.048562527,-0.1376218,-0.05938844,-0.09139025,0.4140275,-0.04346241,0.9123707,-21.73548,6.589115,-64.02517,1008.884
0.053492546,0.1684983,-0.1793656,-0.09139025,0.4125814,-0.04636178,0.9080449,-21.73548,6.589115,-64.02517,1008.884
0.058422565,0.04605031,-0.1793656,0.09137797,0.419375,-0.04486991,0.909481,-21.73548,6.589115,-64.02517,1008.884
0.063353062,0.1072743,-0.05938844,0.03045522,0.4184252,-0.04586499,0.9166298,-21.73548,6.589115,-64.02517,1008.884
0.068283081,0.04605031,0.0006001405,-0.03046751,0.4183793,-0.04196821,0.9076074,-21.73548,6.589115,-64.02517,1008.884
0.073213100,0.1072743,-0.2393542,-0.03046751,0.4145539,-0.04830653,0.9156545,-21.73548,6.589115,-64.02517,1008.884
0.078143597,0.1072743,-0.119377,-0.03046751,0.4218041,-0.04389628,0.9128283,-21.73548,6.589115,-64.02517,1008.884
0.083073616,-0.01517372,0.06058872,-0.2741585,0.4193572,-0.04244978,0.9090317,-21.73548,6.589115,-64.02517,1008.884
0.088003635,-0.01517372,-0.2993428,-0.09139025,0.4208249,-0.04293379,0.912364,-21.73548,6.589115,-64.02517,1008.884
0.092934132,0.2297224,-0.05938844,0.03045522,0.4199095,-0.05116242,0.9117936,-21.71858,6.215197,-63.58191,1008.884
0.097864151,0.04605031,0.1205773,-0.2132357,0.4184031,-0.04439681,0.91092,-21.71858,6.215197,-63.58191,1008.884
0.102794170,0.1684983,-0.2993428,-0.152313,0.4169781,-0.04876294,0.9118268,-21.71858,6.215197,-63.58191,1008.884
0.107724667,0.1684983,-0.119377,-0.2132357,0.4145273,-0.04491609,0.9142619,-21.71858,6.215197,-63.58191,1008.884
0.112654686,0.1684983,0.06058872,-0.152313,0.4188697,-0.04149256,0.9114298,-21.71858,6.215197,-63.58191,1008.884
0.120049953,-0.01517372,-0.2393542,-0.03046751,0.4184024,-0.0434378,0.9137944,-21.71858,6.215197,-63.58191,1008.884
0.124979973,0.1684983,-0.05938844,0.09137797,0.4164526,-0.04248314,0.9138091,-21.71858,6.215197,-63.58191,1008.884
0.129910469,-0.07639774,-0.05938844,0.03045522,0.4193825,-0.0467964,0.9065954,-21.71858,6.215197,-63.58191,1008.884
0.134840488,0.04605031,-0.1793656,-0.03046751,0.4179194,-0.04440284,0.9118752,-21.71858,6.215197,-63.58191,1008.884
0.139770508,0.2909464,-0.119377,-0.3350812,0.4391446,-0.0263294,0.90059,-21.71858,6.215197,-63.58191,1008.884
0.144700050,0.2297224,0.1205773,0.2132234,0.4459399,-0.03202446,0.8785589,-22.05699,7.340462,-64.02781,1008.884
0.149631023,0.04605031,0.2405545,0.2132234,0.3965847,-0.04986789,0.9128069,-22.05699,7.340462,-64.02781,1008.884
0.154561043,0.2297224,-0.05938844,-0.03046751,0.4142114,-0.06096616,0.9422344,-22.05699,7.340462,-64.02781,1008.884
0.159490585,0.2297224,-0.6592742,-0.396004,0.403836,-0.04689616,0.905669,-22.05699,7.340462,-64.02781,1008.884
0.164421558,0.1072743,-0.119377,-0.3350812,0.4460223,-0.0369311,0.9018866,-22.05699,7.340462,-64.02781,1008.884
0.169351578,0.04605031,0.1805659,0.03045522,0.4120147,-0.03571275,0.904828,-22.05699,7.340462,-64.02781,1008.884
0.174281120,0.1072743,0.2405545,0.1523007,0.4285328,-0.03704368,0.9009637,-22.05699,7.340462,-64.02781,1008.883
0.179212093,-0.01517372,0.4205202,0.2741462,0.4106489,-0.04830534,0.9065945,-22.05699,7.340462,-64.02781,1008.883
0.184142113,-0.01517372,0.1805659,-0.2132357,0.413646,-0.05462985,0.925128,-22.05699,7.340462,-64.02781,1008.883
0.189071655,0.1684983,0.06058872,-0.2741585,0.4077323,-0.04592704,0.9137858,-22.05699,7.340462,-64.02781,1008.883
0.194002628,-0.01517372,0.1205773,-0.2741585,0.4256348,-0.03660742,0.9105189,-21.72426,6.591322,-63.58617,1008.883
0.198932648,-0.01517372,-0.05938844,0.09137797,0.4236676,-0.03371214,0.9086469,-21.72426,6.591322,-63.58617,1008.883
0.203862190,-0.1376218,0.2405545,0.2741462,0.4203502,-0.04438964,0.9128253,-21.72426,6.591322,-63.58617,1008.883
0.208793163,-0.01517372,0.3605316,0.2741462,0.418446,-0.05212116,0.9055814,-21.72426,6.591322,-63.58617,1008.883
0.213718891,-0.01517372,0.4205202,0.1523007,0.4146014,-0.05316373,0.9222797,-21.72426,6.591322,-63.58617,1008.884
0.218650341,-0.01517372,0.1205773,-0.152313,0.4140376,-0.04491365,0.9123539,-21.72426,6.591322,-63.58617,1008.884
0.223579407,-0.01517372,0.06058872,-0.09139025,0.4149442,-0.0357147,0.9119809,-21.72426,6.591322,-63.58617,1008.884
0.228509426,-0.2600698,0.06058872,0.03045522,0.4227072,-0.03277649,0.9172497,-21.72426,6.591322,-63.58617,1008.884
0.233439446,-0.1988458,-0.05938844,0.2132234,0.4193568,-0.04197028,0.9104689,-21.72426,6.591322,-63.58617,1008.884
0.238369942,-0.1988458,0.06058872,0.2132234,0.4228209,-0.05209655,0.9070051,-21.72426,6.591322,-63.58617,1008.884
0.243299961,-0.07639774,0.1205773,-0.03046751,0.4179976,-0.05409324,0.917013,-21.72994,6.967447,-63.59044,1008.884
0.248229981,0.1072743,0.06058872,-0.2132357,0.4184156,-0.04633037,0.9104205,-21.72994,6.967447,-63.59044,1008.884
0.253160000,-0.1376218,0.2405545,-0.2132357,0.420305,-0.03762006,0.9138579,-21.72994,6.967447,-63.59044,1008.884
0.258090496,-0.01517372,0.1205773,-0.03046751,0.4188165,-0.03327458,0.9134335,-21.72994,6.967447,-63.59044,1008.884
0.263020516,-0.2600698,0.3605316,0.1523007,0.4169582,-0.04250818,0.9233525,-21.72994,6.967447,-63.59044,1008.884
0.267950535,-0.1376218,0.06058872,0.3959917,0.4145605,-0.05166871,0.9075028,-21.72994,6.967447,-63.59044,1008.884
0.272881031,-0.1988458,0.300543,-0.09139025,0.4160543,-0.05506366,0.9136649,-21.72994,6.967447,-63.59044,1008.884
0.277811050,-0.01517372,0.2405545,-0.2741585,0.4140742,-0.04975532,0.9137298,-21.72994,6.967447,-63.59044,1008.884
0.282741070,0.1072743,0.06058872,-0.3350812,0.4261673,-0.04289712,0.9118771,-21.72994,6.967447,-63.59044,1008.884
0.287671566,-0.07639774,0.300543,-0.03046751,0.4208152,-0.03956737,0.9190841,-21.72994,6.967447,-63.59044,1008.884
0.292601585,0.1684983,0.1805659,0.09137797,0.4150161,-0.04491712,0.9156927,-22.03601,6.590104,-63.64299,1008.886
0.299996853,-0.01517372,-0.05938844,0.03045522,0.4145551,-0.05118215,0.906554,-22.03601,6.590104,-63.64299,1008.886
0.304926872,-0.1376218,0.2405545,-0.09139025,0.4194553,-0.05456313,0.9155732,-22.03601,6.590104,-63.64299,1008.886
0.309857369,0.1684983,0.1805659,-0.152313,0.4251995,-0.04386678,0.9104361,-22.03601,6.590104,-63.64299,1008.886
0.314787388,-0.01517372,0.2405545,-0.09139025,0.4203368,-0.04389177,0.9080588,-22.03601,6.590104,-63.64299,1008.886
0.319721222,0.1684983,0.2405545,0.1523007,0.4174345,-0.04297036,0.9171422,-22.03601,6.590104,-63.64299,1008.886
0.324647427,-0.01517372,0.2405545,0.03045522,0.4164835,-0.04635873,0.9156733,-22.03601,6.590104,-63.64299,1008.886
0.329577923,0.04605031,0.1205773,-0.09139025,0.4136032,-0.0507373,0.9175373,-22.03601,6.590104,-63.64299,1008.886
0.334507942,0.04605031,0.06058872,0.03045522,0.4126156,-0.04928401,0.9146925,-22.03601,6.590104,-63.64299,1008.886
0.339437485,-0.01517372,0.1805659,-0.152313,0.4251907,-0.04145936,0.9142817,-21.73155,6.967132,-63.65315,1008.886
0.344368458,0.1072743,0.1205773,-0.03046751,0.4188701,-0.04197206,0.9099926,-21.73155,6.967132,-63.65315,1008.886
0.349298477,0.1072743,0.2405545,-0.152313,0.4193873,-0.04536636,0.9137704,-21.73155,6.967132,-63.65315,1008.886
0.354228020,0.1072743,0.1205773,-0.03046751,0.419401,-0.04873844,0.9089592,-21.73155,6.967132,-63.65315,1008.886
0.359158993,0.1684983,0.1205773,-0.152313,0.4126253,-0.05025573,0.9161129,-21.73155,6.967132,-63.65315,1008.886
0.364089012,0.1684983,0.2405545,-0.2741585,0.4169781,-0.04876294,0.9118268,-21.73155,6.967132,-63.65315,1008.886
0.369018555,0.04605031,0.2405545,-0.09139025,0.4188695,-0.04245016,0.9080781,-21.73155,6.967132,-63.65315,1008.886
0.373949528,0.1072743,0.300543,0.03045522,0.4169169,-0.04053366,0.9100128,-21.73155,6.967132,-63.65315,1008.884
0.378879547,0.2297224,0.300543,0.09137797,0.4208446,-0.04535674,0.9137678,-21.73155,6.967132,-63.65315,1008.884
0.383809090,0.1684983,0.2405545,-0.03046751,0.4130591,-0.04491017,0.9090152,-21.73155,6.967132,-63.65315,1008.884
0.388740063,0.1684983,0.06058872,-0.09139025,0.4160214,-0.05118525,0.9108463,-21.72426,6.591322,-63.58617,1008.884
0.393670082,0.2297224,0.3605316,-0.3350812,0.4213132,-0.04245532,0.915232,-21.72426,6.591322,-63.58617,1008.884
0.398599625,0.2909464,0.300543,-0.09139025,0.4154586,-0.04054186,0.9095382,-21.72426,6.591322,-63.58617,1008.884
0.403530598,0.1072743,0.2405545,-0.03046751,0.4169434,-0.0439241,0.9114054,-21.72426,6.591322,-63.58617,1008.884
0.408460140,0.2297224,0.1805659,-0.03046751,0.412106,-0.04685861,0.9113806,-21.72426,6.591322,-63.58617,1008.884
0.413386345,0.1684983,0.2405545,-0.09139025,0.4145527,-0.04926271,0.9118256,-21.72426,6.591322,-63.58617,1008.884
0.418316364,0.1072743,0.2405545,-0.03046751,0.4159848,-0.04634358,0.9094704,-21.72426,6.591322,-63.58617,1008.884
0.423246861,0.04605031,0.06058872,0.03045522,0.41695,-0.04345448,0.9161831,-21.72426,6.591322,-63.58617,1008.884
0.428181648,0.2297224,0.2405545,-0.152313,0.4149963,-0.04249417,0.9142889,-21.72426,6.591322,-63.58617,1008.884
0.433106899,0.1072743,0.1205773,-0.09139025,0.4120457,-0.03719364,0.9148328,-21.72426,6.591322,-63.58617,1008.884
0.438037396,-0.01517372,-0.2393542,-0.2132357,0.4120936,-0.04253035,0.9200208,-21.70896,6.217089,-63.20563,1008.884
0.442967415,0.04605031,-0.119377,0.09137797,0.4179272,-0.04680884,0.9075525,-21.70896,6.217089,-63.20563,1008.884
0.447897434,-0.07639774,-0.1793656,0.09137797,0.4193763,-0.04391372,0.9133099,-21.70896,6.217089,-63.20563,1008.884
0.452827931,0.1684983,-0.119377,-0.03046751,0.4160086,-0.04877217,0.912783,-21.70896,6.217089,-63.20563,1008.884
0.457757950,0.04605031,0.06058872,-0.09139025,0.4154834,-0.04297188,0.9133281,-21.70896,6.217089,-63.20563,1008.888
0.462687969,0.2297224,-0.05938844,0.03045522,0.4174306,-0.04440181,0.9104446,-21.70896,6.217089,-63.20563,1008.888
0.467618466,-0.01517372,0.1805659,-0.03046751,0.4169256,-0.04150397,0.9109561,-21.70896,6.217089,-63.20563,1008.888
0.475013733,-0.01517372,-0.1793656,0.1523007,0.4184277,-0.04778443,0.9113581,-21.70896,6.217089,-63.20563,1008.888
0.479943752,0.1072743,-0.1793656,-0.09139025,0.4169526,-0.04537391,0.9109114,-21.70896,6.217089,-63.20563,1008.888
0.484873772,-0.01517372,0.06058872,-0.03046751,0.4218206,-0.04583549,0.9142377,-21.72426,6.591322,-63.58617,1008.888
0.489804268,-0.01517372,0.1205773,-0.09139025,0.4140202,-0.04297303,0.9104674,-21.72426,6.591322,-63.58617,1008.888
0.494734287,0.04605031,0.06058872,-0.03046751,0.4135762,-0.04686736,0.9175819,-21.72426,6.591322,-63.58617,1008.888
0.499664784,-0.1376218,0.0006001405,0.03045522,0.4150067,-0.0444249,0.9128349,-21.72426,6.591322,-63.58617,1008.887
0.504594803,-0.01517372,-0.05938844,-0.09139025,0.4130223,-0.03863139,0.9124282,-21.72426,6.591322,-63.58617,1008.887
0.509524822,-0.07639774,0.1205773,0.03045522,0.4208269,-0.04293662,0.9133185,-21.72426,6.591322,-63.58617,1008.887
0.514454842,0.04605031,0.06058872,0.03045522,0.423767,-0.04630641,0.9142286,-21.72426,6.591322,-63.58617,1008.887
0.519384861,-0.01517372,0.0006001405,-0.03046751,0.4179255,-0.04584842,0.9099497,-21.72426,6.591322,-63.58617,1008.887
0.524315357,0.1072743,0.1205773,0.09137797,0.4164546,-0.04248596,0.9147635,-21.72426,6.591322,-63.58617,1008.887
0.529245377,0.04605031,-0.05938844,-0.03046751,0.4135517,-0.04347974,0.9171436,-21.72426,6.591322,-63.58617,1008.887
0.534179688,-0.07639774,0.1805659,0.03045522,0.4149804,-0.04007686,0.914794,-22.02479,6.592311,-63.20399,1008.887
0.539105892,-0.01517372,-0.119377,-0.03046751,0.4164609,-0.04297395,0.9161896,-22.02479,6.592311,-63.20399,1008.885
0.544035912,-0.01517372,-0.119377,0.1523007,0.417924,-0.0439304,0.9156986,-22.02479,6.592311,-63.20399,1008.885
0.548965454,-0.07639774,0.06058872,0.2741462,0.4169557,-0.04681525,0.9075542,-22.02479,6.592311,-63.20399,1008.885
0.553896427,0.1072743,-0.119377,-0.09139025,0.4164829,-0.04683682,0.9137589,-22.02479,6.592311,-63.20399,1008.885
0.558826447,0.04605031,-0.2393542,-0.09139025,0.4145484,-0.04638286,0.9194945,-22.02479,6.592311,-63.20399,1008.885
0.563755989,0.1072743,0.0006001405,-0.09139025,0.4164472,-0.04199657,0.9128602,-22.02479,6.592311,-63.20399,1008.885
0.568686962,-0.07639774,-0.119377,-0.09139025,0.4159718,-0.0424934,0.916196,-22.02479,6.592311,-63.20399,1008.885
0.573616982,-0.01517372,-0.1793656,-0.152313,0.419871,-0.04392323,0.917604,-22.02479,6.592311,-63.20399,1008.885
0.578546524,-0.07639774,-0.1793656,0.09137797,0.4150081,-0.04490582,0.9118749,-22.02479,6.592311,-63.20399,1008.883
0.583477497,-0.07639774,0.0006001405,0.03045522,0.4125775,-0.04396142,0.9142766,-21.35209,6.592406,-63.59325,1008.883
0.588407517,0.3521704,-0.119377,-0.09139025,0.4188989,-0.04440773,0.9156913,-21.35209,6.592406,-63.59325,1008.883
0.593337059,-0.1988458,0.0006001405,-0.152313,0.4193632,-0.04245825,0.9118949,-21.35209,6.592406,-63.59325,1008.883
0.598268032,0.1072743,0.06058872,-0.03046751,0.4188909,-0.04439643,0.9118735,-21.35209,6.592406,-63.59325,1008.883
0.603197575,0.1072743,-0.2393542,-0.03046751,0.4169564,-0.04394246,0.9176092,-21.35209,6.592406,-63.59325,1008.883
0.608127594,-0.07639774,-0.1793656,0.03045522,0.4174766,-0.0497357,0.9146781,-21.35209,6.592406,-63.59325,1008.883
0.613054276,-0.01517372,-0.2393542,-0.09139025,0.4169963,-0.05166258,0.910839,-21.35209,6.592406,-63.59325,1008.883
0.617984295,-0.01517372,-0.119377,0.03045522,0.421308,-0.04340585,0.9094942,-21.35209,6.592406,-63.59325,1008.883
0.622915745,0.04605031,-0.05938844,-0.03046751,0.4198531,-0.0438978,0.9090141,-21.35209,6.592406,-63.59325,1008.883
0.627844334,0.04605031,-0.119377,-0.03046751,0.4154915,-0.04442028,0.9123569,-21.35209,6.592406,-63.59325,1008.883
0.632774830,0.04605031,-0.05938844,-0.09139025,0.4116209,-0.04398903,0.9214365,-21.71858,6.215197,-63.58191,1008.883
0.637704849,0.04605031,-0.1793656,-0.152313,0.4101474,-0.04110183,0.9233815,-21.71858,6.215197,-63.58191,1008.883
0.642634869,0.04605031,-0.2393542,-0.09139025,0.4135144,-0.03911617,0.9138534,-21.71858,6.215197,-63.58191,1008.883
0.650035381,-0.01517372,-0.3593313,0.09137797,0.412582,-0.04205188,0.9228887,-21.71858,6.215197,-63.58191,1008.883
0.654960632,-0.1376218,-0.2393542,0.03045522,0.4144839,-0.03910693,0.9128972,-21.71858,6.215197,-63.58191,1008.883
0.659890652,-0.01517372,-0.4193199,0.03045522,0.4159795,-0.0434623,0.9166621,-21.71858,6.215197,-63.58191,1008.886
0.664820671,-0.1376218,-0.2993428,0.03045522,0.4193968,-0.04729569,0.9118391,-21.71858,6.215197,-63.58191,1008.886
0.669751167,-0.07639774,-0.2993428,-0.03046751,0.4232556,-0.04531529,0.9051735,-21.71858,6.215197,-63.58191,1008.886
0.674681187,-0.07639774,-0.3593313,-0.03046751,0.4189299,-0.04972043,0.9127666,-21.71858,6.215197,-63.58191,1008.886
0.679611206,-0.1988458,-0.2393542,0.03045522,0.4174356,-0.04440887,0.9128306,-21.71858,6.215197,-63.58191,1008.886
0.684541702,-0.07639774,-0.4793085,-0.03046751,0.4174403,-0.04537353,0.9118649,-21.71858,6.215197,-63.58191,1008.886
0.689471722,-0.1376218,-0.4193199,0.03045522,0.4140269,-0.04394051,0.9104562,-21.71858,6.215197,-63.58191,1008.886
0.694401741,-0.1376218,-0.2993428,0.1523007,0.4198647,-0.04343525,0.9161778,-21.71858,6.215197,-63.58191,1008.886
0.699332237,-0.1376218,-0.3593313,0.03045522,0.4189246,-0.04923386,0.9118177,-21.71858,6.215197,-63.58191,1008.886
0.704262257,-0.1376218,-0.2393542,-0.09139025,0.4198469,-0.04484693,0.9027991,-21.71858,6.215197,-63.58191,1008.886
0.709192276,-0.01517372,-0.1793656,0.03045522,0.4194052,-0.04778649,0.9142197,-21.71858,6.215197,-63.58191,1008.886
0.714122296,-0.2600698,-0.2393542,-0.09139025,0.4159652,-0.04296303,0.9114183,-21.71858,6.215197,-63.58191,1008.886
0.719052792,-0.1376218,-0.1793656,-0.152313,0.4111484,-0.0468848,0.9180635,-21.71858,6.215197,-63.58191,1008.886
0.723982811,-0.2600698,-0.4193199,0.09137797,0.4096466,-0.03964674,0.9210131,-21.71858,6.215197,-63.58191,1008.886
0.728912354,-0.1376218,-0.3593313,0.1523007,0.4086544,-0.03866589,0.914345,-20.98151,6.593175,-63.66304,1008.886
0.733843327,-0.1376218,-0.6592742,0.03045522,0.4183935,-0.04103038,0.91764,-20.98151,6.593175,-63.66304,1008.886
0.738773346,-0.2600698,-0.5992857,0.03045522,0.4184208,-0.04537984,0.9161581,-20.98151,6.593175,-63.66304,1008.886
0.743706227,-0.1988458,-0.539297,0.09137797,0.4193774,-0.04535224,0.9089983,-20.98151,6.593175,-63.66304,1008.886
0.748633862,-0.1376218,-0.4193199,-0.03046751,0.422292,-0.045333,0.908993,-20.98151,6.593175,-63.66304,1008.886
0.753563881,-0.1376218,-0.539297,0.1523007,0.4213028,-0.04435639,0.9037565,-20.98151,6.593175,-63.66304,1008.886
0.758493423,-0.2600698,-0.4793085,0.09137797,0.4193523,-0.04004801,0.9147862,-20.98151,6.593175,-63.66304,1008.886
0.763424396,-0.07639774,-0.6592742,0.2132234,0.4154438,-0.03812597,0.9105206,-20.98151,6.593175,-63.66304,1008.886
0.768354416,-0.2600698,-0.7192628,0.09137797,0.417437,-0.04488979,0.9118705,-20.98151,6.593175,-63.66304,1008.886
0.773283958,-0.2600698,-0.4793085,0.03045522,0.4194147,-0.04971581,0.9122885,-20.98151,6.593175,-63.66304,1008.886
0.778214931,-0.1988458,-0.4193199,0.2132234,0.4213248,-0.04582457,0.9094663,-21.36506,7.344341,-63.6645,1008.886
0.783144951,-0.1376218,-0.4793085,0.03045522,0.415978,-0.04537609,0.9094816,-21.36506,7.344341,-63.6645,1008.886
0.788074493,-0.1376218,-0.3593313,0.09137797,0.4188825,-0.04390562,0.909493,-21.36506,7.344341,-63.6645,1008.886
0.793009281,-0.1988458,-0.539297,-0.2741585,0.4178912,-0.04148908,0.908091,-21.36506,7.344341,-63.6645,1008.886
0.797935009,-0.1376218,-0.4793085,0.09137797,0.4130739,-0.04349425,0.9209623,-21.36506,7.344341,-63.6645,1008.886
0.802865028,-0.1988458,-0.6592742,0.1523007,0.4149918,-0.04057191,0.9186062,-21.36506,7.344341,-63.6645,1008.886
0.807795048,-0.07639774,-0.6592742,0.03045522,0.410145,-0.04301421,0.9157237,-21.36506,7.344341,-63.6645,1008.886
0.812721729,-0.2600698,-0.6592742,0.1523007,0.409169,-0.04493016,0.9071133,-21.36506,7.344341,-63.6645,1008.886
0.817651749,-0.1376218,-0.7792514,0.2132234,0.4150035,-0.04537826,0.9080517,-21.36506,7.344341,-63.6645,1008.886
0.822582245,-0.1376218,-0.7192628,-0.09139025,0.4174357,-0.04584598,0.9080417,-21.36506,7.344341,-63.6645,1008.886
0.829977035,-0.1988458,-0.6592742,0.09137797,0.4164442,-0.04199233,0.9114286,-22.03048,6.968436,-63.20826,1008.886
0.834907532,-0.1988458,-0.83924,0.03045522,0.4198681,-0.04535609,0.9113834,-22.03048,6.968436,-63.20826,1008.886
0.839837551,-0.2600698,-0.7192628,0.2132234,0.4159923,-0.04827008,0.9065848,-22.03048,6.968436,-63.20826,1008.886
0.844767570,-0.1988458,-0.6592742,0.1523007,0.4198883,-0.04825855,0.9113499,-22.03048,6.968436,-63.20826,1008.886
0.849698067,-0.3825178,-0.7792514,0.2132234,0.4218156,-0.04582842,0.9118515,-22.03048,6.968436,-63.20826,1008.886
0.854628086,-0.3825178,-0.6592742,0.09137797,0.4121156,-0.04639323,0.9175901,-22.03048,6.968436,-63.20826,1008.886
0.859558105,-0.1376218,-0.83924,0.1523007,0.425197,-0.04194734,0.9157077,-22.03048,6.968436,-63.20826,1008.886
0.864488602,-0.1376218,-0.8992285,0.09137797,0.4116143,-0.04685334,0.9085183,-22.03048,6.968436,-63.20826,1008.886
0.869418621,-0.3212938,-0.8992285,0.03045522,0.4154909,-0.04489838,0.9104425,-22.03048,6.968436,-63.20826,1008.886
0.874348640,-0.07639774,-0.9592171,0.03045522,0.4261603,-0.04288723,0.9085366,-21.33694,6.972631,-62.78224,1008.886
0.879283905,-0.1376218,-0.5992857,0.3959917,0.4295635,-0.04765843,0.893681,-21.33694,6.972631,-62.78224,1008.886
0.884209156,-0.01517372,-0.7792514,-0.2132357,0.419854,-0.04246211,0.9142802,-21.33694,6.972631,-62.78224,1008.886
0.889139175,-0.1988458,-1.019206,-0.09139025,0.4247377,-0.04773569,0.9089607,-21.33694,6.972631,-62.78224,1008.886
0.894069672,-0.07639774,-0.83924,0.2132234,0.4237304,-0.03907004,0.9209932,-21.33694,6.972631,-62.78224,1008.886
0.898999691,-0.01517372,-0.7192628,-0.152313,0.4218518,-0.04635878,0.9275941,-21.33694,6.972631,-62.78224,1008.886
0.903929710,0.1684983,-0.7792514,0.1523007,0.409194,-0.04640258,0.9142548,-21.33694,6.972631,-62.78224,1008.884
0.908859730,-0.1376218,-0.4193199,-0.152313,0.409662,-0.04781105,0.9008752,-21.33694,6.972631,-62.78224,1008.884
0.913790226,0.04605031,-0.4193199,-0.03046751,0.4164519,-0.04535593,0.9037541,-21.33694,6.972631,-62.78224,1008.884
0.918720245,0.1072743,-0.7792514,-0.03046751,0.4096424,-0.0444305,0.9028231,-21.33694,6.972631,-62.78224,1008.884
0.923649788,-0.2600698,-0.5992857,0.1523007,0.4154838,-0.04345138,0.9118908,-21.71858,6.215197,-63.58191,1008.884
0.928580761,-0.1988458,-0.8992285,-0.03046751,0.4106684,-0.04785408,0.917576,-21.71858,6.215197,-63.58191,1008.884
0.933510780,-0.1376218,-0.8992285,-0.03046751,0.4140663,-0.04974401,0.9099121,-21.71858,6.215197,-63.58191,1008.884
0.938440323,-0.01517372,-0.5992857,0.03045522,0.4155244,-0.04829871,0.9151756,-21.71858,6.215197,-63.58191,1008.884
0.943371296,-0.1376218,-0.6592742,0.09137797,0.4135875,-0.04975711,0.9132535,-21.71858,6.215197,-63.58191,1008.888
0.948301315,-0.1988458,-0.83924,-0.03046751,0.4145084,-0.04488925,0.9051948,-21.71858,6.215197,-63.58191,1008.888
0.953230858,-0.07639774,-0.539297,0.03045522,0.4154921,-0.04394219,0.9142714,-21.71858,6.215197,-63.58191,1008.888
0.958161831,0.1684983,-0.9592171,0.03045522,0.4170188,-0.05121556,0.9232521,-21.71858,6.215197,-63.58191,1008.888
0.963091850,-0.01517372,-0.7192628,0.03045522,0.4077896,-0.05175597,0.9218315,-21.71858,6.215197,-63.58191,1008.888
0.968021393,0.1072743,-1.019206,0.03045522,0.4029545,-0.05134101,0.9342535,-21.71858,6.215197,-63.58191,1008.888
0.972952366,0.1684983,-1.739069,-0.3350812,0.4057702,-0.04064412,0.9224405,-21.72033,6.969339,-63.21416,1008.888
0.977882385,0.04605031,-1.619091,-0.03046751,0.4323598,-0.02879158,0.9000972,-21.72033,6.969339,-63.21416,1008.888
0.982811928,-0.1988458,-1.079194,0.2741462,0.4440706,-0.03980542,0.8880175,-21.72033,6.969339,-63.21416,1008.888
0.987742901,0.1072743,-0.83924,0.4569144,0.4334749,-0.04814761,0.9041672,-21.72033,6.969339,-63.21416,1008.888
0.992672443,0.1684983,-0.7192628,0.1523007,0.4156169,-0.06088309,0.9174166,-21.72033,6.969339,-63.21416,1008.888
0.997602463,-0.07639774,-0.7792514,-0.152313,0.4121391,-0.04977944,0.917551,-21.72033,6.969339,-63.21416,1008.888
1.004997730,0.04605031,-1.079194,-0.2741585,0.4163516,-0.02797084,0.9139764,-21.72033,6.969339,-63.21416,1008.888
1.009928703,-0.01517372,-1.199171,0.2132234,0.4212346,-0.03228541,0.9115314,-21.72033,6.969339,-63.21416,1008.888
1.014859200,0.04605031,-1.379137,0.2132234,0.4208585,-0.04777122,0.9123082,-21.72033,6.969339,-63.21416,1008.888
1.019784451,0.1072743,-1.139183,0.2132234,0.418014,-0.05842716,0.9102819,-21.72033,6.969339,-63.21416,1008.888
1.024714470,0.1072743,-1.25916,-0.09139025,0.416086,-0.05989827,0.9126547,-22.03601,6.590104,-63.64299,1008.888
1.029644966,0.1072743,-1.079194,-0.4569267,0.4208505,-0.04775992,0.9084905,-22.03601,6.590104,-63.64299,1008.888
1.034574986,0.1684983,-1.079194,-0.2741585,0.4173896,-0.03907499,0.908597,-22.03601,6.590104,-63.64299,1008.888
1.039505005,0.04605031,-1.319149,-0.03046751,0.4183267,-0.03327213,0.9115255,-22.03601,6.590104,-63.64299,1008.888
1.044435501,0.1684983,-1.379137,0.09137797,0.4145074,-0.04105603,0.9176471,-22.03601,6.590104,-63.64299,1008.888
1.049365520,0.04605031,-1.439126,0.09137797,0.4169533,-0.04633293,0.908037,-22.03601,6.590104,-63.64299,1008.888
1.054295540,0.04605031,-1.379137,0.03045522,0.4271581,-0.04962356,0.8984352,-22.03601,6.590104,-63.64299,1008.888
1.059226036,-0.01517372,-1.199171,-0.09139025,0.4324929,-0.05005509,0.8926935,-22.03601,6.590104,-63.64299,1008.888
1.064156055,0.04605031,-1.079194,-0.09139025,0.4329643,-0.0457208,0.9003783,-22.03601,6.590104,-63.64299,1008.886
1.069086075,0.2297224,-0.83924,-0.03046751,0.4271129,-0.04285398,0.8994678,-22.03601,6.590104,-63.64299,1008.886
1.074016571,0.2909464,-0.6592742,-0.152313,0.4237136,-0.04287783,0.8999512,-21.72586,6.591007,-63.64889,1008.886
1.078946590,-0.01517372,-0.7192628,0.09137797,0.4227527,-0.04385738,0.9018506,-21.72586,6.591007,-63.64889,1008.886
1.083876610,-0.01517372,-0.7792514,-0.03046751,0.4252214,-0.04772966,0.9080054,-21.72586,6.591007,-63.64889,1008.886
1.088807106,0.1072743,-0.7792514,-0.03046751,0.4116476,-0.04881657,0.9180403,-21.72586,6.591007,-63.64889,1008.886
1.093737125,0.1684983,-0.83924,-0.09139025,0.4131154,-0.05073769,0.9165837,-21.72586,6.591007,-63.64889,1008.886
1.098667145,0.04605031,-1.199171,-0.396004,0.414023,-0.04154016,0.9166879,-21.72586,6.591007,-63.64889,1008.886
1.103597641,0.04605031,-1.019206,-0.2741585,0.4362453,-0.02924403,0.8981757,-21.72586,6.591007,-63.64889,1008.886
1.108527660,0.04605031,-0.7192628,-0.03046751,0.4401283,-0.03160885,0.8885965,-21.72586,6.591007,-63.64889,1008.886
1.113457680,-0.1376218,-0.3593313,0.2741462,0.4349542,-0.05343798,0.896945,-21.72586,6.591007,-63.64889,1008.886
1.118387222,-0.07639774,-0.3593313,0.3350689,0.4228952,-0.0617813,0.9102341,-21.72586,6.591007,-63.64889,1008.886
1.123318195,0.1072743,-0.4193199,-0.3350812,0.4209237,-0.05600616,0.9160311,-22.04169,6.966228,-63.64725,1008.886
1.128248215,0.04605031,-0.539297,-0.4569267,0.4212508,-0.03518222,0.9095891,-22.04169,6.966228,-63.64725,1008.886
1.133177757,-0.01517372,-0.539297,-0.09139025,0.4265651,-0.03223179,0.905318,-22.04169,6.966228,-63.64725,1008.886
1.138113499,-0.1376218,-0.5992857,0.1523007,0.4300171,-0.03850931,0.9090571,-22.04169,6.966228,-63.64725,1008.886
1.143038750,-0.07639774,-0.539297,0.1523007,0.4247468,-0.04918551,0.9084667,-22.04169,6.966228,-63.64725,1008.886
1.147968292,-0.01517372,-0.4193199,0.03045522,0.4232901,-0.05254884,0.8974543,-22.04169,6.966228,-63.64725,1008.888
1.152899265,0.1684983,-0.119377,-0.2132357,0.4262216,-0.05255362,0.9055617,-22.04169,6.966228,-63.64725,1008.888
1.157829285,-0.01517372,-0.119377,-0.2741585,0.4295692,-0.0447927,0.9061221,-22.04169,6.966228,-63.64725,1008.888
1.162758827,0.1072743,-0.05938844,-0.03046751,0.4295256,-0.03994114,0.9014058,-22.04169,6.966228,-63.64725,1008.888
1.167689800,0.1072743,-0.119377,0.09137797,0.4285656,-0.039485,0.9085712,-21.34816,6.970423,-63.22124,1008.888
1.172619820,-0.01517372,-0.05938844,0.09137797,0.4251996,-0.04530388,0.9056472,-21.34816,6.970423,-63.22124,1008.888
1.180015087,-0.01517372,0.0006001405,0.03045522,0.425214,-0.04963497,0.8979616,-21.34816,6.970423,-63.22124,1008.888
1.184944630,0.04605031,0.1805659,0.03045522,0.4319961,-0.04621095,0.9003744,-21.34816,6.970423,-63.22124,1008.888
1.189875603,0.04605031,0.1205773,-0.152313,0.425669,-0.04336146,0.904237,-21.34816,6.970423,-63.22124,1008.888
1.194805145,-0.1376218,0.4205202,-0.03046751,0.4231961,-0.03804643,0.9009622,-21.34816,6.970423,-63.22124,1008.888
1.199735165,-0.07639774,0.4205202,-0.03046751,0.4314681,-0.03801171,0.9076284,-21.34816,6.970423,-63.22124,1008.888
1.204666138,-0.1376218,0.5404973,0.09137797,0.4271031,-0.04044516,0.9028361,-21.34816,6.970423,-63.22124,1008.888
1.209595680,-0.1988458,0.5404973,0.1523007,0.4276306,-0.04672778,0.9018083,-21.34816,6.970423,-63.22124,1008.888
1.214521885,-0.01517372,0.6004859,0.03045522,0.4286298,-0.05155033,0.8988876,-21.34816,6.970423,-63.22124,1008.888
1.219452381,-0.1988458,1.020406,0.3350689,0.4261924,-0.04820134,0.9060891,-21.35209,6.592406,-63.59325,1008.888
1.224384308,0.04605031,0.7804517,0.03045522,0.4271363,-0.04480308,0.9042177,-21.35209,6.592406,-63.59325,1008.888
1.229312420,-0.1988458,0.9604173,-0.09139025,0.4266185,-0.03949217,0.9066659,-21.35209,6.592406,-63.59325,1008.886
1.234245777,-0.2600698,1.200372,0.1523007,0.4290059,-0.03606452,0.8981107,-21.35209,6.592406,-63.59325,1008.886
1.239172936,-0.3212938,1.26036,0.3959917,0.4266397,-0.04239604,0.9071097,-21.35209,6.592406,-63.59325,1008.886
1.244102955,-0.2600698,1.440326,0.2132234,0.432007,-0.04862119,0.8974832,-21.35209,6.592406,-63.59325,1008.886
1.249032974,-0.3825178,1.440326,0.09137797,0.4310442,-0.04959792,0.8984283,-21.35209,6.592406,-63.59325,1008.886
1.253963471,-0.2600698,1.800257,-0.03046751,0.4372884,-0.04179234,0.8903935,-21.35209,6.592406,-63.59325,1008.886
1.258893490,-0.4437418,2.100201,0.1523007,0.4377284,-0.03549764,0.8895107,-21.35209,6.592406,-63.59325,1008.886
1.263823509,-0.3212938,2.100201,0.3350689,0.4387539,-0.04083642,0.8975602,-21.35209,6.592406,-63.59325,1008.886
1.268754005,-0.3825178,2.700086,0.2741462,0.4343994,-0.0428059,0.8994547,-22.03601,6.590104,-63.64299,1008.892
1.273684025,-0.2600698,2.580109,0.2741462,0.4276151,-0.04478998,0.9008762,-22.03601,6.590104,-63.64299,1008.892
1.278614044,-0.4437418,2.700086,0.3350689,0.4227782,-0.0458093,0.9075549,-22.03601,6.590104,-63.64299,1008.892
1.283547401,-0.2600698,2.940041,0.3959917,0.4237305,-0.04290185,0.9080638,-22.03601,6.590104,-63.64299,1008.892
1.288474560,-0.5049658,2.880052,0.3350689,0.4164922,-0.04732905,0.9166166,-22.03601,6.590104,-63.64299,1008.892
1.293404579,-0.3825178,2.880052,0.2741462,0.417463,-0.04636362,0.9194893,-22.03601,6.590104,-63.64299,1008.892
1.298335075,-0.2600698,2.580109,0.3350689,0.4146281,-0.05415947,0.9318129,-22.03601,6.590104,-63.64299,1008.892
1.303265095,0.1684983,2.760075,0.4569144,0.3725979,-0.08542052,0.9391676,-22.03601,6.590104,-63.64299,1008.892
1.308195114,0.2909464,2.100201,0.2132234,0.3095527,-0.07449016,1.028177,-22.03601,6.590104,-63.64299,1008.892
1.313130379,-0.01517372,-1.499114,-1.797227,0.3649782,-0.02751973,0.9737323,-22.03601,6.590104,-63.64299,1008.892
1.318055630,-0.07639774,-1.319149,-0.6396949,0.4849856,-0.007867865,0.8133829,-21.35369,6.592091,-63.65597,1008.892
1.322985649,-0.1376218,1.860246,0.7615281,0.497887,-0.02924438,0.8722892,-21.35369,6.592091,-63.65597,1008.892
1.327915192,-0.1376218,1.380337,1.066142,0.4141552,-0.06280225,0.908807,-21.35369,6.592091,-63.65597,1008.892
1.332846165,0.1684983,0.720463,0.4569144,0.4243187,-0.06938727,0.8681473,-21.35369,6.592091,-63.65597,1008.892
1.337776184,0.2909464,2.580109,-0.2132357,0.4221015,-0.07928298,0.9372362,-21.35369,6.592091,-63.65597,1008.892
1.342705727,0.4746184,1.620292,-0.5178494,0.3375627,-0.05874394,1.001104,-21.35369,6.592091,-63.65597,1008.892
1.347636700,0.2297224,-0.7792514,-1.309845,0.3765313,-0.02010895,0.9475482,-21.35369,6.592091,-63.65597,1008.891
1.355031967,0.04605031,0.1205773,0.03045522,0.452159,-0.01508285,0.8892415,-21.35369,6.592091,-63.65597,1008.891
1.359961987,-0.07639774,0.3605316,0.5787599,0.4285561,-0.04378218,0.8894325,-21.35369,6.592091,-63.65597,1008.891
1.364891529,0.1072743,0.3605316,0.3959917,0.4433252,-0.07174453,0.8895599,-21.34247,6.594298,-63.21697,1008.891
1.369822502,0.2909464,0.9604173,0.09137797,0.4326352,-0.07037371,0.8929365,-21.34247,6.594298,-63.21697,1008.891
1.374754429,0.4133944,1.380337,-0.4569267,0.3991123,-0.06148713,0.9212585,-21.34247,6.594298,-63.21697,1008.891
1.379682064,0.5358425,0.6604745,-1.005231,0.3868724,-0.03987793,0.9482555,-21.34247,6.594298,-63.21697,1008.891
1.384613037,0.2909464,-0.119377,-0.7006176,0.4089864,-0.01401722,0.9232184,-21.34247,6.594298,-63.21697,1008.891
1.389542580,-0.1376218,0.0006001405,-0.152313,0.4327468,-0.01332131,0.9045697,-21.34247,6.594298,-63.21697,1008.891
1.394472599,0.1072743,0.2405545,0.5787599,0.4309809,-0.0399287,0.9004487,-21.34247,6.594298,-63.21697,1008.891
1.399403572,-0.07639774,0.2405545,0.3350689,0.4413082,-0.0625521,0.8848972,-21.34247,6.594298,-63.21697,1008.891
1.404333115,0.2297224,0.8404402,0.1523007,0.4360388,-0.07179262,0.889573,-21.34247,6.594298,-63.21697,1008.891
1.409263134,0.5358425,1.140383,-0.4569267,0.4219096,-0.06033083,0.9083437,-21.34247,6.594298,-63.21697,1008.891
1.414189816,0.3521704,1.080395,-0.8833858,0.4048272,-0.04404379,0.9247893,-22.03441,6.590419,-63.58028,1008.891
1.419119835,0.3521704,0.6604745,-0.5787721,0.4060762,-0.01452161,0.9236953,-22.03441,6.590419,-63.58028,1008.891
1.424049854,0.2909464,0.4805087,-0.152313,0.4138879,-0.02027382,0.9231371,-22.03441,6.590419,-63.58028,1008.891
1.428980351,0.04605031,0.300543,0.4569144,0.4174463,-0.04538201,0.9147283,-22.03441,6.590419,-63.58028,1008.891
1.433913231,0.04605031,0.6004859,0.2741462,0.4233132,-0.05401843,0.9036415,-22.03441,6.590419,-63.58028,1008.891
1.438840389,0.1684983,0.4205202,-0.03046751,0.4243312,-0.06126252,0.9016471,-22.03441,6.590419,-63.58028,1008.891
1.443770409,0.2909464,0.720463,-0.396004,0.4204244,-0.05646909,0.9079137,-22.03441,6.590419,-63.58028,1008.891
1.448700905,0.3521704,0.9004288,-0.396004,0.4154551,-0.03862102,0.9143327,-22.03441,6.590419,-63.58028,1008.891
1.453630924,0.2297224,0.6604745,-0.3350812,0.4071503,-0.02855081,0.9259178,-22.03441,6.590419,-63.58028,1008.891
1.458560944,0.1072743,0.4205202,0.09137797,0.4071356,-0.02757202,0.9221113,-22.03441,6.590419,-63.58028,1008.891
1.586745739,0.0448923,0.2349618,-0.09078045,0.4194316,-0.05357163,0.9074718,-21.73155,6.967132,-63.65315,1008.893
1.589210034,0.1061022,0.5348309,-0.2125974,0.4179328,-0.04633781,0.911853,-21.73155,6.967132,-63.65315,1008.893
1.594141007,0.1059779,0.4745063,-0.212483,0.4184269,-0.04682541,0.9142326,-21.73155,6.967132,-63.65315,1008.893
1.599070549,0.1059113,0.3542688,0.03128403,0.4140129,-0.04008893,0.9167047,-21.73155,6.967132,-63.65315,1008.893
1.604000569,0.105864,0.5339931,-0.02960094,0.4115686,-0.03816716,0.9157769,-21.73155,6.967132,-63.65315,1008.893
1.608931542,0.04459268,0.2337524,-0.02958235,0.4208454,-0.04631576,0.9108933,-21.73723,7.343257,-63.65742,1008.893
1.613857269,0.04460314,0.3535827,-0.02956376,0.4184243,-0.04730069,0.9113637,-21.73723,7.343257,-63.65742,1008.893
1.618787289,0.1057607,0.3533606,-0.09048707,0.4169734,-0.04779828,0.9127924,-21.73723,7.343257,-63.65742,1008.893
1.623717785,0.2894047,0.4731158,-0.2731602,0.4179249,-0.04632651,0.9080353,-21.73723,7.343257,-63.65742,1008.893
1.628647804,0.1668134,0.4128488,-0.09025862,0.413076,-0.04493418,0.9171278,-21.73723,7.343257,-63.65742,1008.893
1.633577824,0.1054653,0.2326426,-0.0292409,0.4111104,-0.04156221,0.9176476,-21.73723,7.343257,-63.65742,1008.893
1.638508320,-0.01701051,0.112557,0.09262295,0.4096431,-0.0415577,0.912878,-21.73723,7.343257,-63.65742,1008.893
1.643438339,-0.01699983,0.05249769,-0.02924244,0.4130657,-0.04444055,0.9137929,-21.73723,7.343257,-63.65742,1008.893
1.648368359,0.04421565,0.1124344,-0.02924321,0.4194182,-0.05163666,0.9074941,-21.73723,7.343257,-63.65742,1008.893
1.653298855,0.04418787,0.1123638,-0.1510512,0.421333,-0.04727298,0.9084952,-21.73723,7.343257,-63.65742,1008.893
1.764227390,0.1033406,0.1709259,-0.08992866,0.4174542,-0.04778801,0.9104055,-21.34816,6.970423,-63.22124,1008.89
1.764227390,0.1033406,0.1709259,-0.08992866,0.4174542,-0.04778801,0.9104055,-21.34816,6.970423,-63.22124,1008.89
1.769156933,0.1645189,0.05091675,-0.1508523,0.4198796,-0.04728824,0.9104067,-21.34816,6.970423,-63.22124,1008.89
1.774087906,-0.01923728,0.1708431,0.03197238,0.4179167,-0.04487811,0.9090064,-21.34816,6.970423,-63.22124,1008.89
1.779017448,0.04199883,0.05077744,0.2147205,0.4179061,-0.04151027,0.9152493,-21.34816,6.970423,-63.22124,1008.89
1.783948421,0.04197245,0.050689,0.0928167,0.4135494,-0.04443452,0.9128376,-21.34816,6.970423,-63.22124,1008.89
1.788878441,0.04196531,0.1106646,0.1537003,0.4198503,-0.04293597,0.9109341,-21.34816,6.970423,-63.22124,1008.89
1.793807983,0.04195819,0.1106139,0.03179651,0.4121031,-0.04445967,0.9180896,-21.34816,6.970423,-63.22124,1008.89
1.798738003,0.04193183,0.1105633,-0.02918448,0.4169609,-0.04586472,0.913292,-21.34816,6.970423,-63.22124,1008.89
1.803668976,-0.01933777,-0.009502199,0.1536021,0.4154797,-0.04200863,0.9147708,-21.74116,6.96524,-64.02943,1008.89
1.808598518,-0.01932563,0.1704507,0.09260198,0.417926,-0.04393322,0.916653,-21.74116,6.96524,-64.02943,1008.89
1.813524723,0.04185284,-0.06955419,0.0316402,0.4130688,-0.04588189,0.9104357,-21.74116,6.96524,-64.02943,1008.89
1.818455219,0.04180731,-0.009540766,-0.02928328,0.4150313,-0.04781252,0.9132732,-21.74116,6.96524,-64.02943,1008.89
1.823385239,-0.1419103,-0.009534772,0.03165786,0.4203589,-0.04535995,0.9137686,-21.74116,6.96524,-64.02943,1008.89
1.828315258,-0.08059709,0.1703992,-0.1511111,0.4135413,-0.04298612,0.9138088,-21.74116,6.96524,-64.02943,1008.89
1.833245754,-0.0193032,0.05035274,0.0926365,0.4150135,-0.04539238,0.9128238,-21.74116,6.96524,-64.02943,1008.888
1.944174290,0.2246207,0.3477538,0.03229729,0.4145123,-0.04345779,0.9118925,-21.34247,6.594298,-63.21697,1008.89
1.949104786,-0.02041652,0.1675885,-0.0286266,0.4198757,-0.04728259,0.9084978,-20.98151,6.593175,-63.66304,1008.89
1.954034805,0.1632876,0.04750605,-0.08947393,0.4173991,-0.04100431,0.9066659,-20.98151,6.593175,-63.66304,1008.89
1.958964825,0.1019995,0.2273854,-0.02857154,0.4130603,-0.04395398,0.912844,-20.98151,6.593175,-63.66304,1008.888
1.963895321,0.1019354,0.1073031,0.1542146,0.415472,-0.04103973,0.9143048,-20.98151,6.593175,-63.66304,1008.888
1.968825340,0.04064734,0.3471711,-0.02865048,0.414034,-0.0453875,0.9090078,-20.98151,6.593175,-63.66304,1008.888
1.973755836,-0.02058299,0.167025,-0.08953608,0.418903,-0.04585048,0.9128112,-20.98151,6.593175,-63.66304,1008.888
1.978685856,0.101878,0.1069315,-0.08946069,0.4174513,-0.04538907,0.9171143,-20.98151,6.593175,-63.66304,1008.888
1.983615875,0.0406092,0.2868489,0.03240271,0.4135249,-0.0410469,0.9123994,-20.98151,6.593175,-63.66304,1008.888
1.988545418,0.04054521,0.4066458,-0.1503093,0.4164795,-0.04635308,0.9137645,-20.98151,6.593175,-63.66304,1008.888
1.993480682,0.2854351,0.1665115,-0.2720795,0.4169481,-0.04345166,0.9152287,-20.98151,6.593175,-63.66304,1008.888
1.998406410,0.1628462,0.1663503,0.09357045,0.4164715,-0.04634178,0.9099468,-21.72033,6.969339,-63.21416,1008.888
2.003335953,0.04035353,0.0463252,0.1544535,0.4145505,-0.04782278,0.9156601,-21.72033,6.969339,-63.21416,1008.888
2.008265972,0.1627762,0.226243,0.03249189,0.4135453,-0.04299176,0.9157176,-21.72033,6.969339,-63.21416,1008.888
2.013192654,0.1014692,0.1061049,0.09335594,0.4164574,-0.04488491,0.9080546,-21.72033,6.969339,-63.21416,1008.888
2.018122673,-0.02098491,0.2860982,-0.08939437,0.4155096,-0.04588281,0.9161578,-21.72033,6.969339,-63.21416,1008.888
2.129051685,-0.02153064,-0.1348789,-0.02793946,0.4145576,-0.04926978,0.9142118,-21.36898,6.966324,-64.03651,1008.889
2.131516457,-0.2051959,-0.01485933,0.0939148,0.4159881,-0.04682731,0.9094648,-21.36898,6.966324,-64.03651,1008.889
2.133981705,-0.02145942,0.04513392,-0.02796018,0.4145477,-0.04686094,0.9175801,-21.36898,6.966324,-64.03651,1008.889
2.138911724,0.03975886,0.04512441,-0.02794262,0.4193903,-0.0477653,0.9070615,-21.36898,6.966324,-64.03651,1008.889
2.143842220,0.03975311,-0.01487366,-0.02788678,0.4145289,-0.04443941,0.9166536,-21.36898,6.966324,-64.03651,1008.889
2.148772240,0.03972814,0.04506772,0.0330152,0.4193715,-0.04294906,0.9142755,-21.73155,6.967132,-63.65315,1008.889
2.153702259,-0.08274486,0.1050468,0.03299445,0.4183841,-0.04293287,0.9066418,-21.73155,6.967132,-63.65315,1008.889
2.158632755,0.2233695,0.1649317,-0.08891003,0.4145173,-0.04346486,0.9142787,-21.73155,6.967132,-63.65315,1008.889
2.163562775,-0.08281397,0.1048584,-0.0279123,0.4155409,-0.05023791,0.9165848,-21.73155,6.967132,-63.65315,1008.889
2.168492317,-0.02161486,0.1647622,0.1548352,0.414017,-0.04153168,0.9138246,-21.73155,6.967132,-63.65315,1008.889
2.173423290,0.100866,-0.01526932,-0.02799203,0.4169437,-0.0429665,0.9147571,-21.73155,6.967132,-63.65315,1008.889
2.178353310,0.03959785,0.0447477,-0.02797445,0.4106053,-0.04105907,0.9100186,-21.73155,6.967132,-63.65315,1008.889
2.183282852,0.0395345,-0.01528784,0.03290845,0.4135483,-0.042996,0.9171492,-21.73155,6.967132,-63.65315,1008.889
2.188213825,0.1619962,-0.01531593,-0.0889577,0.4125593,-0.04106179,0.9152645,-21.73155,6.967132,-63.65315,1008.889
2.193143845,0.03942713,0.1646217,0.03290538,0.4164588,-0.04536582,0.9070946,-21.72426,6.591322,-63.58617,1008.889
2.198073387,-0.08298798,0.1045486,0.03288471,0.4198708,-0.04488083,0.9142523,-21.72426,6.591322,-63.58617,1008.887
2.309002400,0.03785444,0.4025385,-0.2103163,0.4179474,-0.0497113,0.907519,-21.72994,6.967447,-63.59044,1008.885
2.313928604,0.3439315,0.3423347,-0.210165,0.4101511,-0.04445979,0.9137982,-21.72994,6.967447,-63.59044,1008.885
2.318859100,0.2825107,0.2221425,-0.2100138,0.4081357,-0.03479068,0.9115272,-21.72994,6.967447,-63.59044,1008.885
2.323789120,0.1598659,0.102007,-0.08805557,0.4120308,-0.03477775,0.9158151,-21.72994,6.967447,-63.59044,1008.889
2.328719139,-0.08511136,-0.01799658,0.09474882,0.4140174,-0.04201119,0.9123874,-21.72994,6.967447,-63.59044,1008.889
2.333649635,0.03737092,0.1619616,-0.08800236,0.4091225,-0.03767967,0.9091059,-21.72994,6.967447,-63.59044,1008.889
2.338579655,0.09855223,0.04190156,-0.02708176,0.417454,-0.04635091,0.9151944,-21.72994,6.967447,-63.59044,1008.889
2.343509674,0.03728553,-0.0180945,-0.02708388,0.409659,-0.04397501,0.9123729,-21.72426,6.591322,-63.58617,1008.889
2.348439694,-0.02396191,0.1618072,-0.1489315,0.4149492,-0.03572176,0.9143671,-21.72426,6.591322,-63.58617,1008.889
2.353370190,-0.02388916,-0.1981317,-0.02703073,0.4130588,-0.04203596,0.918593,-21.72426,6.591322,-63.58617,1008.889
2.358300209,-0.3911798,-0.1979884,0.2166389,0.4193349,-0.03810739,0.9128996,-21.72426,6.591322,-63.58617,1008.889
2.363230705,-0.1461149,0.04209034,0.1556184,0.4160116,-0.04877641,0.9142147,-21.72426,6.591322,-63.58617,1008.889
2.368160725,-0.1460808,-0.01792468,-0.2099775,0.4238326,-0.05262615,0.9246548,-21.72426,6.591322,-63.58617,1008.889
2.373090744,-0.145989,0.1020826,-0.02713483,0.4121525,-0.05410911,0.9093882,-21.72426,6.591322,-63.58617,1008.889
2.378020287,0.3437987,0.1620636,-0.3316549,0.4194287,-0.05117269,0.9141807,-21.72426,6.591322,-63.58617,1008.889
2.382951260,0.2823586,0.04204114,-0.3314849,0.4144933,-0.03959915,0.9157549,-21.72426,6.591322,-63.58617,1008.889
2.496344566,0.03500598,-0.07847703,-0.1472343,0.4189016,-0.04536957,0.9137712,-20.98559,6.969615,-63.60459,1008.891
2.498809815,0.03499498,-0.07845237,-0.08626533,0.4223131,-0.04679977,0.9142256,-20.98559,6.969615,-63.60459,1008.891
2.503739834,0.034973,0.04155522,0.0356152,0.4125793,-0.04492185,0.9118793,-20.98559,6.969615,-63.60459,1008.891
2.508669853,-0.02623453,0.04154797,-0.08625264,0.4227782,-0.0458093,0.9075549,-20.98559,6.969615,-63.60459,1008.891
2.513596535,0.09621076,0.2214876,0.0355896,0.4150463,-0.05166551,0.9075019,-20.98559,6.969615,-63.60459,1008.891
2.518526554,0.1573551,0.1013713,-0.08623996,0.4145173,-0.04346486,0.9142787,-20.98559,6.969615,-63.60459,1008.891
2.523456574,0.03478898,0.04135673,-0.08620492,0.4135376,-0.04202287,0.9152516,-20.98559,6.969615,-63.60459,1008.889
2.528387070,0.03480559,-0.138635,-0.08616991,0.4057535,-0.0396625,0.9176795,-20.98559,6.969615,-63.60459,1008.889
2.533319473,0.03476449,0.1613573,0.03572971,0.4081738,-0.03771857,0.9200836,-20.98559,6.969615,-63.60459,1008.889
2.538247109,-0.2713582,-0.07866068,0.03570726,0.408674,-0.04204645,0.912397,-21.34816,6.970423,-63.22124,1008.889
2.543177605,-0.271207,-0.2585582,0.1575303,0.4120941,-0.04444696,0.9137946,-21.34816,6.970423,-63.22124,1008.889
2.548107624,-0.02614053,-0.4383426,0.09652774,0.4120979,-0.04541021,0.9123518,-21.34816,6.970423,-63.22124,1008.889
2.553037644,-0.1485914,-0.1381432,-0.02537838,0.417431,-0.04488132,0.9090073,-21.34816,6.970423,-63.22124,1008.889
2.557968140,-0.08733171,-0.01811694,-0.02530501,0.4228141,-0.04969196,0.9118052,-21.34816,6.970423,-63.22124,1008.889
2.562898159,-0.1485201,-0.138045,-0.02534654,0.4193746,-0.0443904,0.9109182,-21.34816,6.970423,-63.22124,1008.889
2.567828179,0.03524527,0.04195089,0.03561126,0.4188946,-0.04535968,0.9104307,-21.34816,6.970423,-63.22124,1008.889
2.681222439,0.09361294,-0.08078081,-0.02422602,0.4164707,-0.04777747,0.9046807,-21.73155,6.967132,-63.65315,1008.893
2.683686733,0.2160316,0.03922172,-0.08514115,0.4218408,-0.04873795,0.9142042,-21.70896,6.217089,-63.20563,1008.893
2.688617706,0.2158766,0.03917823,-0.2069331,0.4213181,-0.04485708,0.9094775,-21.70896,6.217089,-63.20563,1008.893
2.693547249,0.1545554,0.1591496,-0.02409235,0.4154824,-0.04297047,0.9128508,-21.70896,6.217089,-63.20563,1008.893
2.698477268,0.1544391,-0.02085955,-0.02409635,0.4179097,-0.04343112,0.9104548,-21.70896,6.217089,-63.20563,1008.893
2.703407765,0.09307961,0.2790211,-0.08500395,0.4189017,-0.04680667,0.9089824,-21.70896,6.217089,-63.20563,1008.893
2.708338738,0.3378788,-0.02107827,-0.08500797,0.4165107,-0.04927108,0.9189804,-21.70896,6.217089,-63.20563,1008.893
2.713263989,0.09277041,0.1589007,-0.1458964,0.4198505,-0.04437307,0.9061452,-21.70896,6.217089,-63.20563,1008.893
2.718194485,0.4599793,-0.02116485,-0.08488205,0.4208075,-0.04243027,0.9056885,-21.70896,6.217089,-63.20563,1008.893
2.723124504,0.214852,0.2786971,0.03697848,0.4169558,-0.04442056,0.9156947,-21.70896,6.217089,-63.20563,1008.893
2.728059769,0.3371073,0.3384917,0.09789713,0.4150024,-0.04393975,0.9123634,-21.70896,6.217089,-63.20563,1008.892
2.732985020,0.336934,0.3383168,0.09785476,0.4155555,-0.05361141,0.9122509,-21.35369,6.592091,-63.65597,1008.892
2.737915039,0.4591319,0.5182208,-0.2677049,0.4066811,-0.03815683,0.9014692,-21.35369,6.592091,-63.65597,1008.892
2.742849827,0.3364339,0.2780728,-0.328402,0.4436263,-0.03938845,0.9094986,-21.35369,6.592091,-63.65597,1008.892
2.747775078,0.4587091,0.6376788,0.09816778,0.4027667,-0.03383162,0.9024808,-21.35369,6.592091,-63.65597,1008.892
2.752705574,0.2747681,-0.02248305,-0.2064693,0.42381,-0.04540955,0.9381004,-21.35369,6.592091,-63.65597,1008.892
2.942516804,0.1479588,-0.1392868,-0.2663377,0.4363452,-0.0399231,0.9104606,-21.73155,6.967132,-63.65315,1008.891
2.944977760,0.1479123,-0.01926583,-0.02256303,0.4460798,-0.04036533,0.9180729,-21.73155,6.967132,-63.65315,1008.891
2.949908257,0.2702482,-0.1992006,0.1601619,0.4100433,-0.0313747,0.9058361,-21.73155,6.967132,-63.65315,1008.891
2.954838276,-0.2196175,0.1607429,0.1600422,0.4242958,-0.04923815,0.9251701,-21.73155,6.967132,-63.65315,1008.891
2.959768295,0.08656357,-0.259165,0.09903805,0.3917268,-0.04702574,0.9223934,-21.73155,6.967132,-63.65315,1008.891
2.964698791,0.208938,-0.2590399,-0.02279309,0.4291189,-0.04819906,0.9118105,-21.73155,6.967132,-63.65315,1008.891
2.969628811,0.1475827,-0.01890403,-0.1446242,0.4061841,-0.0352703,0.9057985,-21.73155,6.967132,-63.65315,1008.891
2.974558830,0.0250612,-0.1389447,-0.1445143,0.431509,-0.03950673,0.9224052,-22.01911,6.216186,-63.19973,1008.891
2.979489326,0.08625025,-0.1387632,0.03828733,0.4047585,-0.04011451,0.9047909,-22.01911,6.216186,-63.19973,1008.891
2.984419346,0.1474201,-0.01873654,-0.02269774,0.4267136,-0.05160129,0.9117758,-22.01911,6.216186,-63.19973,1008.891
2.989349365,0.2085707,0.04126381,-0.1445098,0.4096708,-0.04638666,0.909959,-22.01911,6.216186,-63.19973,1008.891
2.994279861,0.2084205,0.2211471,-0.2662454,0.4169624,-0.04395094,0.9204724,-22.01911,6.216186,-63.19973,1008.891
2.999209881,-0.09781135,-0.07884051,-0.1442709,0.4047297,-0.03384705,0.9120216,-22.01911,6.216186,-63.19973,1008.891
3.004139900,0.2082933,-0.01882124,0.09952982,0.4222743,-0.04051818,0.9166842,-22.01911,6.216186,-63.19973,1008.891
3.009069920,-0.03667597,-0.01886596,0.03850627,0.408159,-0.03913448,0.9081364,-22.01911,6.216186,-63.19973,1008.891
3.014000416,-0.03665293,0.04117216,-0.02244066,0.4178999,-0.04245939,0.9090343,-22.01911,6.216186,-63.19973,1008.891
3.018930435,0.08579891,0.04118399,-0.02236914,0.4184237,-0.04777877,0.9094493,-22.01911,6.216186,-63.19973,1008.891
3.023859978,0.1469883,-0.1988339,0.09947125,0.4208351,-0.04582212,0.9075584,-22.05131,6.964336,-64.02354,1008.891
3.028790951,0.02444788,0.2211922,-0.08332118,0.4213048,-0.04435921,0.9047109,-22.05131,6.964336,-64.02354,1008.891
3.033720970,0.2693094,0.3410116,-0.1441533,0.4164345,-0.04102061,0.9100081,-22.05131,6.964336,-64.02354,1008.891
3.038650513,0.1466921,0.4607933,-0.1440819,0.3849778,-0.05097588,0.9342915,-22.05131,6.964336,-64.02354,1008.891
3.043581486,0.2689519,-1.03906,-0.02214588,0.4111731,-0.0354247,0.9687821,-22.05131,6.964336,-64.02354,1008.891
3.048511505,-0.159766,0.1609122,-0.204881,0.4387928,-0.03849681,0.9243122,-22.05131,6.964336,-64.02354,1008.891
3.053441048,0.2688063,0.7008025,0.2216877,0.3897592,-0.04125625,0.9300993,-22.05131,6.964336,-64.02354,1008.891
3.058372021,0.02377985,0.220416,-0.1440071,0.4146102,-0.04790753,0.944293,-22.05131,6.964336,-64.02354,1008.891
3.063302040,0.2686033,0.1004511,-0.0829748,0.3819388,-0.04315493,0.9005037,-22.05131,6.964336,-64.02354,1008.891
3.068231583,-0.1600759,0.1004822,-0.2048064,0.4446419,-0.0423184,0.9209165,-22.05131,6.964336,-64.02354,1008.891
3.073162556,0.1460871,-0.01957689,0.09985938,0.3983609,-0.03620715,0.8781229,-22.41227,6.96546,-63.57747,1008.891
3.078092575,0.02358572,0.5202949,-0.2047788,0.4310888,-0.05061908,0.9165513,-22.41227,6.96546,-63.57747,1008.891
3.083022118,0.08475646,0.2800326,0.03900255,0.3989864,-0.04693951,0.9094955,-22.41227,6.96546,-63.57747,1008.891
3.087953091,0.2071897,0.2198681,-0.2046938,0.4266804,-0.04484866,0.918535,-22.41227,6.96546,-63.57747,1008.891
3.092882633,0.1458355,-0.02013011,-0.02185438,0.4101079,-0.04008773,0.9076446,-22.41227,6.96546,-63.57747,1008.891
3.097812653,0.08451989,0.5196478,-0.2045897,0.4290593,-0.0394931,0.9123881,-22.41227,6.96546,-63.57747,1008.891
3.102743626,0.2068764,0.3394499,0.03921061,0.410093,-0.03767185,0.9086269,-22.41227,6.96546,-63.57747,1008.891
3.107673168,0.2067849,0.09930114,-0.08262122,0.4296094,-0.04916051,0.910844,-22.41227,6.96546,-63.57747,1008.891
3.112603188,0.206655,0.4590948,-0.08258845,0.4154543,-0.04388851,0.8961371,-22.41227,6.96546,-63.57747,1008.891
3.117534161,0.2677492,0.4587876,-0.2652665,0.4271588,-0.04675076,0.9084902,-22.41227,6.96546,-63.57747,1008.891
3.124929428,0.2674584,0.638208,-0.08228663,0.4198607,-0.04342959,0.914269,-21.36345,7.344656,-63.60178,1008.891
3.129858971,0.2672519,0.8177539,-0.1431003,0.4188481,-0.03810918,0.9124233,-21.36345,7.344656,-63.60178,1008.891
3.134788990,0.5119802,-0.1425393,-0.02120316,0.4587692,-0.04898795,0.9174725,-21.36345,7.344656,-63.60178,1008.891
3.139719009,0.3891912,0.6972584,-0.1430927,0.3983828,-0.03623822,0.8886216,-21.36345,7.344656,-63.60178,1008.891
3.144645691,0.3889852,0.9367558,-0.2038299,0.4310881,-0.05109717,0.9146369,-21.36345,7.344656,-63.60178,1008.891
3.149575710,0.4499841,1.535883,-0.38647,0.3917112,-0.04748265,0.9133208,-21.36345,7.344656,-63.60178,1008.891
3.154505730,0.572111,0.4554069,-0.5688998,0.386446,-0.0495447,0.9443271,-21.36345,7.344656,-63.60178,1008.891
3.159436226,0.8778332,-0.7445,0.2233001,0.4776472,-0.03966757,0.9161127,-21.36345,7.344656,-63.60178,1008.891
3.164366245,0.6936289,1.235289,-0.02056941,0.4347514,-0.03830209,0.8498737,-21.36345,7.344656,-63.60178,1008.891
3.169296265,0.6932124,1.774354,-0.08142181,0.4457328,-0.06499282,0.9020412,-21.36345,7.344656,-63.60178,1008.891
3.174226761,0.8764105,2.912702,-0.7515016,0.3739545,-0.06754631,0.9508244,-22.01911,6.216186,-63.19973,1008.893
3.179156780,1.243204,-0.08797267,-0.6899728,0.4005337,-0.04514183,0.9591455,-22.01911,6.216186,-63.19973,1008.893
3.184086800,1.119956,0.2719387,-0.5068477,0.4924826,-0.02248746,0.865696,-22.01911,6.216186,-63.19973,1008.893
3.189017296,1.180457,2.31121,0.1026215,0.4381257,-0.03680582,0.8422488,-22.01911,6.216186,-63.19973,1008.893
3.193947315,1.118862,3.570244,-0.8721745,0.4282956,-0.06470077,0.9278479,-22.01911,6.216186,-63.19973,1008.893
3.198877335,1.486206,2.550438,-1.176788,0.3286914,-0.04473071,0.9869647,-22.01911,6.216186,-63.19973,1008.893
3.203807831,1.24131,0.6308036,-1.359556,0.4018507,-0.02481642,0.9598544,-22.01911,6.216186,-63.19973,1008.893
3.208737850,0.9964141,0.5108265,-0.6284835,0.4202317,-0.03416323,0.8900362,-22.01911,6.216186,-63.19973,1008.893
3.213667870,1.608654,1.650609,0.7727394,0.5073055,-0.1077367,0.9334078,-22.01911,6.216186,-63.19973,1008.893
3.218598366,2.710687,1.590621,1.077353,0.5739161,-0.1275003,0.8943992,-20.9703,6.595383,-63.22404,1008.893
3.223528385,4.302511,3.990164,0.407203,0.5534819,-0.07900035,0.8081397,-20.9703,6.595383,-63.22404,1008.893
3.228458405,3.812719,6.26973,-1.420479,0.4948667,-0.0973404,0.8261735,-20.9703,6.595383,-63.22404,1008.893
3.233393669,4.057615,6.929604,-1.907861,0.4037126,-0.0977051,0.9093791,-20.9703,6.595383,-63.22404,1008.893
3.238318920,4.118839,5.669844,-2.090629,0.3540781,-0.07300316,0.9522306,-20.9703,6.595383,-63.22404,1008.893
3.243253231,4.118839,4.889992,-1.968784,0.3571557,-0.03564209,0.9221123,-20.9703,6.595383,-63.22404,1008.893
3.248179436,3.935167,4.530061,-2.029706,0.3340487,0.01010069,0.9436808,-20.9703,6.595383,-63.22404,1008.893
3.253109455,3.384151,3.270301,-1.846938,0.3463099,0.06530956,0.9514521,-20.9703,6.595383,-63.22404,1008.893
3.258039475,2.343343,2.790393,-0.750329,0.3533804,0.08817549,0.9240227,-20.9703,6.595383,-63.22404,1008.893
3.262969971,1.54743,2.610427,-0.2020244,0.3150051,0.09031695,0.9322324,-20.9703,6.595383,-63.22404,1008.893
3.267899990,0.812742,1.470644,0.7727394,0.2948194,0.06784256,0.9615999,-21.72033,6.969339,-63.21416,1008.893
3.272830010,-0.04439433,0.03091782,1.01643,0.2663335,0.04106309,0.9560955,-21.72033,6.969339,-63.21416,1008.893
3.277760506,-0.7178586,-0.988888,0.9555076,0.2869706,0.006857616,0.9537538,-21.72033,6.969339,-63.21416,1008.893
3.282690525,-1.513771,-2.248648,0.2244348,0.3148384,-0.01955706,0.9505337,-21.72033,6.969339,-63.21416,1008.893
3.287620068,-1.207651,-3.44842,0.2244348,0.3887684,-0.03692451,0.9354006,-21.72033,6.969339,-63.21416,1008.893
3.292550087,-1.391323,-3.208465,0.3462802,0.4873217,-0.04337735,0.8835999,-21.72033,6.969339,-63.21416,1008.893
3.299945355,-0.9627547,-1.048877,0.8945849,0.5360468,-0.0724846,0.8559708,-21.72033,6.969339,-63.21416,1008.893
3.304876328,-0.2892904,0.0909064,1.260121,0.5134149,-0.0930344,0.8834562,-21.72033,6.969339,-63.21416,1008.893
3.309805870,0.3229498,1.230689,1.077353,0.4683439,-0.1030611,0.9015602,-21.72033,6.969339,-63.21416,1008.893
3.314735890,0.93519,1.770586,-0.2020244,0.437625,-0.08777195,0.8979762,-21.72033,6.969339,-63.21416,1008.893
3.319666863,1.363758,2.010541,-1.176788,0.3851109,-0.07080229,0.9316767,-21.72586,6.591007,-63.64889,1008.893
3.324596405,1.180086,1.410655,-2.090629,0.3516268,-0.01242378,0.9109365,-21.72586,6.591007,-63.64889,1008.893
3.329526424,0.4453978,0.9307464,-2.090629,0.3077396,0.07874379,0.9034788,-21.72586,6.591007,-63.64889,1008.893
3.334457398,-1.697443,0.03091782,-2.456166,0.2189354,0.1438604,0.9344614,-21.72586,6.591007,-63.64889,1008.893
3.339387894,-4.3913,-1.828728,-2.517088,0.1066576,0.166204,0.9807441,-21.72586,6.591007,-63.64889,1008.893
3.344313145,-7.146381,-6.087917,-2.456166,0.06424998,0.1386176,1.053046,-21.72586,6.591007,-63.64889,1008.893
3.349243641,-8.554533,-10.94699,-1.542325,0.1231387,0.1292685,1.073825,-21.72586,6.591007,-63.64889,1008.893
3.354173660,-8.309637,-14.54631,1.260121,0.3360355,0.1051005,1.050717,-21.72586,6.591007,-63.64889,1008.893
3.359103680,-8.860653,-14.36634,3.636108,0.6904377,-0.0224935,0.9812915,-21.72586,6.591007,-63.64889,1008.893
3.364034176,-4.513748,-7.2277,8.81454,0.8706231,-0.229769,0.9656803,-21.72586,6.591007,-63.64889,1008.893
3.368964195,6.016784,-8.06754,15.08958,0.678486,-0.1085817,0.7837025,-20.96461,6.219257,-63.21978,1008.893
3.373894215,-1.697443,-7.2277,9.91115,0.3918892,0.07647898,0.7128786,-20.96461,6.219257,-63.21978,1008.892
3.378824711,-4.146404,-1.168854,12.40898,0.319204,-0.1504908,0.7399895,-20.96461,6.219257,-63.21978,1008.892
3.383754730,-0.6566345,-2.188659,10.15484,0.4554592,-0.123592,0.9442989,-20.96461,6.219257,-63.21978,1008.892
3.388684750,-0.4729624,-0.5089794,10.82499,0.5245844,-0.348142,0.9601948,-20.96461,6.219257,-63.21978,1008.892
3.393615246,7.241264,-0.988888,11.43422,0.512296,-0.0487667,0.9617571,-20.96461,6.219257,-63.21978,1008.892
3.398545265,-1.452547,0.3908493,3.575186,0.3460092,-0.07119639,0.8148235,-20.96461,6.219257,-63.21978,1008.892
3.403475285,-1.574995,-0.2690251,2.722267,0.36995,-0.2033788,0.9048848,-20.96461,6.219257,-63.21978,1008.892
3.408405781,2.527014,-0.5689679,3.45334,0.495849,-0.1392329,0.9249536,-20.96461,6.219257,-63.21978,1008.892
3.413337708,0.5678459,-0.1490479,2.295808,0.3874477,-0.09268812,0.8130664,-20.96461,6.219257,-63.21978,1008.892
3.418265820,1.914774,2.310484,-0.3847926,0.4776553,-0.1083849,0.9229569,-21.72426,6.591322,-63.58617,1008.892
3.423196316,0.5678459,1.230689,-2.882625,0.3748895,-0.07658835,0.902518,-21.72426,6.591322,-63.58617,1008.892
3.428126335,0.9964141,2.430461,-4.893075,0.4640296,-0.1055665,0.921106,-21.72426,6.591322,-63.58617,1008.892
3.433056355,1.118862,2.250495,-4.649384,0.3519966,-0.07521434,0.8777608,-21.72426,6.591322,-63.58617,1008.892
3.437986374,1.608654,2.550438,-5.989685,0.4131381,-0.05172778,0.924208,-21.72426,6.591322,-63.58617,1008.892
3.442916870,-0.1056184,1.590621,-6.720757,0.4177941,-0.02554534,0.9149562,-21.72426,6.591322,-63.58617,1008.892
3.447846890,-0.4117385,2.790393,-6.172453,0.4753697,0.007253987,0.9128395,-21.72426,6.591322,-63.58617,1008.892
3.452776909,-0.6566345,3.030347,-5.624148,0.3972559,-0.008244032,0.9080355,-21.72426,6.591322,-63.58617,1008.892
3.457707405,-0.4729624,3.090335,-4.77123,0.2873591,0.03429998,0.9994063,-21.72426,6.591322,-63.58617,1008.893
3.462637425,-0.7790825,-0.4489908,-3.126316,0.321338,0.07191873,1.113835,-21.72426,6.591322,-63.58617,1008.893
3.467567444,-0.5954105,-3.388431,-0.5066381,0.3963002,0.072886,0.9547861,-21.72602,7.345464,-63.21843,1008.893
3.474962711,-1.330099,-0.7489337,1.503812,0.4189188,0.01277463,0.8834208,-21.72602,7.345464,-63.21843,1008.893
3.479893208,-1.330099,-1.588774,1.747503,0.4467708,-0.06603865,0.9306612,-21.72602,7.345464,-63.21843,1008.893
3.484823227,-0.5954105,-1.408808,2.052117,0.4414758,-0.08578026,0.8874928,-21.72602,7.345464,-63.21843,1008.893
3.489752770,-0.2892904,-0.5689679,1.503812,0.4365952,-0.08194801,0.889455,-21.72602,7.345464,-63.21843,1008.893
3.494683743,-0.1668424,-0.6289566,0.4681257,0.4157202,-0.08210421,0.8956965,-21.72602,7.345464,-63.21843,1008.893
3.499613762,0.0168297,0.2108836,-0.5066381,0.4092702,-0.05848486,0.9102976,-21.72602,7.345464,-63.21843,1008.897
3.504543305,-0.2280664,-0.2090365,-0.9330972,0.3965841,-0.04028767,0.9448919,-21.72602,7.345464,-63.21843,1008.897
3.509474278,-0.1056184,-0.8689108,-0.5066381,0.4129356,-0.02078658,0.9307687,-21.72602,7.345464,-63.21843,1008.897
3.514404297,-0.04439433,-1.168854,-0.01925619,0.4278249,-0.007514543,0.8931922,-21.70343,6.595421,-62.7709,1008.897
3.519333840,-0.4117385,-0.2090365,0.5290485,0.4453984,-0.02572205,0.8729057,-21.70343,6.595421,-62.7709,1008.897
3.524264813,-0.2892904,0.2708721,0.8336622,0.4257793,-0.05836597,0.9069273,-21.70343,6.595421,-62.7709,1008.897
3.529194832,-0.04439433,-0.02907075,0.407203,0.4030924,-0.07356918,0.9258842,-21.70343,6.595421,-62.7709,1008.897
3.534124375,0.2617258,-0.3890022,-0.08017892,0.4063442,-0.05800905,0.9064907,-21.70343,6.595421,-62.7709,1008.897
3.539055348,0.07805371,-0.1490479,-0.5066381,0.4125264,-0.03718337,0.9124458,-21.70343,6.595421,-62.7709,1008.896
3.543981075,-0.04439433,-0.1490479,-0.3847926,0.4139043,-0.02221303,0.9245465,-21.70343,6.595421,-62.7709,1008.896
3.548911095,-0.2280664,-0.3890022,-0.01925619,0.421137,-0.01825686,0.9116932,-21.70343,6.595421,-62.7709,1008.896
3.553841591,-0.2280664,-0.2690251,0.5290485,0.4193,-0.03422615,0.9091265,-21.70343,6.595421,-62.7709,1008.896
3.558771610,-0.04439433,-0.3290136,0.407203,0.419392,-0.04872572,0.9046643,-21.70343,6.595421,-62.7709,1008.896
3.563703060,-0.1056184,-0.3290136,0.2244348,0.4150794,-0.05458633,0.9136723,-22.02479,6.592311,-63.20399,1008.896
3.568632126,0.07805371,-0.08905933,-0.2629471,0.4116276,-0.04735122,0.9132848,-22.02479,6.592311,-63.20399,1008.896
3.573562145,-0.04439433,-0.08905933,-0.3238699,0.41497,-0.03814613,0.916248,-22.02479,6.592311,-63.20399,1008.896
3.578492642,-0.1668424,-0.2690251,-0.08017892,0.4206814,-0.02500846,0.9035033,-22.02479,6.592311,-63.20399,1008.894
3.583422661,-0.1056184,-0.1490479,0.2853575,0.4110261,-0.03186334,0.9096465,-22.02479,6.592311,-63.20399,1008.894
3.588352680,-0.2892904,-0.2090365,0.3462802,0.410677,-0.04738729,0.9233081,-22.02479,6.592311,-63.20399,1008.894
3.593282700,-0.2280664,-0.2690251,0.163512,0.4053833,-0.05755149,0.9131791,-22.02479,6.592311,-63.20399,1008.894
3.598212719,-0.04439433,-0.3290136,0.04166655,0.4194072,-0.05162112,0.9022447,-22.02479,6.592311,-63.20399,1008.894
3.603143215,0.0168297,-0.1490479,-0.1411017,0.4193724,-0.04534517,0.9066122,-22.02479,6.592311,-63.20399,1008.894
3.608073235,-0.1056184,-0.1490479,0.04166655,0.4222272,-0.03374577,0.9167623,-22.02479,6.592311,-63.20399,1008.894
3.613003254,-0.1668424,-0.1490479,0.163512,0.4154302,-0.03475389,0.9153318,-22.03048,6.968436,-63.20826,1008.894
3.617933750,-0.1056184,-0.3890022,0.163512,0.4087161,-0.04497998,0.9228623,-22.03048,6.968436,-63.20826,1008.894
3.622863770,-0.04439433,-0.3290136,0.1025893,0.4092303,-0.05076474,0.9170679,-22.03048,6.968436,-63.20826,1008.894
3.627793789,-0.04439433,-0.4489908,-0.1411017,0.4174514,-0.04682617,0.9123255,-22.03048,6.968436,-63.20826,1008.894
3.632724285,0.0168297,-0.2090365,-0.08017892,0.4159601,-0.04151886,0.9138211,-22.03048,6.968436,-63.20826,1008.894
3.637654305,0.0168297,-0.1490479,-0.01925619,0.4207898,-0.03761544,0.9133798,-22.03048,6.968436,-63.20826,1008.894
3.642584324,0.07805371,-0.2690251,0.1025893,0.4164096,-0.03715349,0.9110072,-22.03048,6.968436,-63.20826,1008.894
3.647514820,-0.4729624,-0.1490479,0.1025893,0.4223083,-0.04583511,0.9151912,-22.03048,6.968436,-63.20826,1008.894
3.654910088,-0.04439433,-0.08905933,0.1025893,0.4106408,-0.04446223,0.9157061,-22.03048,6.968436,-63.20826,1008.894
3.659840107,-0.1056184,-0.4489908,-0.08017892,0.4217985,-0.04436731,0.9085277,-21.36506,7.344341,-63.6645,1008.892
3.664770126,0.0168297,0.0909064,0.04166655,0.4285448,-0.03706063,0.9066903,-21.36506,7.344341,-63.6645,1008.892
3.669700623,-0.04439433,-0.1490479,-0.01925619,0.4164449,-0.04151424,0.9133431,-21.36506,7.344341,-63.6645,1008.892
3.674630642,0.1392777,-0.02907075,-0.01925619,0.4184325,-0.04635439,0.9185331,-21.36506,7.344341,-63.6645,1008.892
3.679560661,0.0168297,-0.1490479,-0.1411017,0.4154831,-0.04249237,0.9147653,-21.36506,7.344341,-63.6645,1008.892
3.684495926,0.07805371,-0.08905933,-0.01925619,0.4144899,-0.03911541,0.9157605,-21.36506,7.344341,-63.6645,1008.892
3.689421177,0.1392777,0.0909064,-0.01925619,0.4212725,-0.0400027,0.9038067,-21.36506,7.344341,-63.6645,1008.892
3.694351196,-0.04439433,-0.2090365,0.04166655,0.4183733,-0.03812793,0.9176735,-21.36506,7.344341,-63.6645,1008.892
3.699285031,-0.04439433,-0.02907075,0.2244348,0.4183675,-0.03955656,0.9100214,-21.36506,7.344341,-63.6645,1008.892
3.704211712,0.0168297,-0.02907075,0.1025893,0.4111289,-0.04494135,0.9152225,-21.36506,7.344341,-63.6645,1008.892
3.709141731,0.1392777,-0.2090365,-0.1411017,0.4154934,-0.04298601,0.9181002,-21.72994,6.967447,-63.59044,1008.892
3.714072228,-0.04439433,0.150895,-0.01925619,0.4159317,-0.03956269,0.9066852,-21.72994,6.967447,-63.59044,1008.892
3.719002247,-0.04439433,0.03091782,0.04166655,0.4120312,-0.03525726,0.9143779,-21.72994,6.967447,-63.59044,1008.892
3.723932266,-0.1056184,-0.3890022,-0.01925619,0.4169408,-0.04056757,0.9214659,-21.72994,6.967447,-63.59044,1008.892
3.728862763,-0.2280664,-0.1490479,0.2244348,0.416925,-0.04198206,0.9090416,-21.72994,6.967447,-63.59044,1008.892
3.733792782,-0.1056184,0.03091782,0.04166655,0.4169458,-0.04440643,0.9109226,-21.72994,6.967447,-63.59044,1008.892
3.738722801,-0.1056184,-0.1490479,-0.08017892,0.4169551,-0.04489865,0.9137803,-21.72994,6.967447,-63.59044,1008.894
3.743648529,0.0168297,-0.1490479,0.1025893,0.4227624,-0.0409973,0.9162005,-21.72994,6.967447,-63.59044,1008.894
3.748579025,0.1392777,-0.1490479,0.04166655,0.4096378,-0.04107114,0.9119292,-21.72994,6.967447,-63.59044,1008.894
3.753512860,-0.2280664,-0.2090365,-0.01925619,0.4159595,-0.03960225,0.9200473,-21.72994,6.967447,-63.59044,1008.894
3.758439064,-0.1668424,-0.2090365,0.163512,0.4154727,-0.04199874,0.9114303,-21.74131,7.719697,-63.59898,1008.894
3.763369560,-0.1056184,-0.1490479,-0.01925619,0.4193998,-0.04729993,0.9132708,-21.74131,7.719697,-63.59898,1008.894
3.768299580,-0.1668424,-0.02907075,0.04166655,0.4222818,-0.04244467,0.9137986,-21.74131,7.719697,-63.59898,1008.894
3.773229599,0.07805371,-0.2690251,-0.2020244,0.4232794,-0.04774389,0.9084861,-21.74131,7.719697,-63.59898,1008.894
3.778160095,0.07805371,-0.02907075,-0.01925619,0.4222657,-0.04098497,0.910952,-21.74131,7.719697,-63.59898,1008.894
3.783090115,0.1392777,0.0909064,-0.08017892,0.4121075,-0.04494483,0.9185613,-21.74131,7.719697,-63.59898,1008.892
3.788020134,0.0168297,-0.08905933,0.04166655,0.4149498,-0.03524368,0.9162814,-21.74131,7.719697,-63.59898,1008.892
3.792950630,-0.04439433,-0.02907075,0.1025893,0.4140228,-0.04249775,0.9133363,-21.74131,7.719697,-63.59898,1008.892
3.797880650,-0.04439433,-0.08905933,0.163512,0.4140036,-0.03959671,0.9138469,-21.74131,7.719697,-63.59898,1008.892
3.802810669,0.0168297,-0.1490479,0.04166655,0.4144908,-0.04151152,0.9080971,-21.74131,7.719697,-63.59898,1008.892
3.807741165,-0.04439433,-0.08905933,0.04166655,0.4227745,-0.04245135,0.9171382,-21.72602,7.345464,-63.21843,1008.892
3.812671184,-0.1056184,-0.08905933,-0.01925619,0.4188558,-0.04147278,0.9047488,-21.72602,7.345464,-63.21843,1008.892
3.817605019,0.0168297,-0.02907075,-0.1411017,0.4179288,-0.04250035,0.9228735,-21.72602,7.345464,-63.21843,1008.892
3.822531700,-0.1668424,0.03091782,-0.08017892,0.4101105,-0.03721776,0.918654,-21.72602,7.345464,-63.21843,1008.894
3.829926968,-0.04439433,0.03091782,-0.01925619,0.4232618,-0.04436617,0.9113884,-21.72602,7.345464,-63.21843,1008.894
3.834861755,0.0168297,0.03091782,0.04166655,0.4120528,-0.03864063,0.9133844,-21.72602,7.345464,-63.21843,1008.894
3.839787006,-0.04439433,-0.1490479,0.04166655,0.4222788,-0.04244043,0.9123669,-21.72602,7.345464,-63.21843,1008.894
3.844717503,0.0168297,-0.02907075,-0.1411017,0.4179588,-0.05020634,0.9113311,-21.72602,7.345464,-63.21843,1008.894
3.849647522,-0.1056184,-0.1490479,0.04166655,0.419878,-0.04776492,0.908015,-21.72602,7.345464,-63.21843,1008.894
3.854577541,-0.04439433,0.150895,0.04166655,0.4208211,-0.04197054,0.9138068,-20.97991,6.593491,-63.60033,1008.894
3.859508038,0.07805371,0.03091782,0.04166655,0.4179149,-0.04248058,0.9161925,-20.97991,6.593491,-63.60033,1008.894
3.864438057,-0.2892904,0.0909064,0.1025893,0.4164087,-0.03858918,0.905741,-20.97991,6.593491,-63.60033,1008.892
3.869368076,0.1392777,-0.02907075,0.04166655,0.4154789,-0.04344432,0.9095048,-20.97991,6.593491,-63.60033,1008.892
3.874298573,0.0168297,0.03091782,-0.2020244,0.4164513,-0.03960752,0.9229096,-20.97991,6.593491,-63.60033,1008.892
3.879228592,0.07805371,0.03091782,-0.1411017,0.4193817,-0.04200559,0.9223993,-20.97991,6.593491,-63.60033,1008.892
3.884158611,0.0168297,0.0909064,-0.01925619,0.4164313,-0.04197397,0.9052248,-20.97991,6.593491,-63.60033,1008.892
3.889088631,0.0168297,0.2108836,-0.01925619,0.4159848,-0.04634358,0.9094704,-20.97991,6.593491,-63.60033,1008.892
3.894019127,0.0168297,0.2108836,-0.08017892,0.4174296,-0.0444004,0.9099674,-20.97991,6.593491,-63.60033,1008.892
3.898949146,0.07805371,0.03091782,-0.01925619,0.4115844,-0.04058446,0.9152719,-20.97991,6.593491,-63.60033,1008.892
3.903879642,0.1392777,0.03091782,-0.08017892,0.4111094,-0.0415608,0.9171703,-21.73155,6.967132,-63.65315,1008.895
3.908809662,-0.1056184,-0.02907075,0.163512,0.4091485,-0.0391535,0.9167246,-21.73155,6.967132,-63.65315,1008.895
3.913739681,0.0168297,0.03091782,0.1025893,0.4164521,-0.04439833,0.9071057,-21.73155,6.967132,-63.65315,1008.895
3.918669701,-0.1056184,-0.08905933,0.163512,0.4203209,-0.04003736,0.9133528,-21.73155,6.967132,-63.65315,1008.895
3.923600197,0.0168297,-0.02907075,-0.1411017,0.4193689,-0.04342433,0.9114066,-21.73155,6.967132,-63.65315,1008.895
3.928530216,-0.1056184,0.03091782,-0.1411017,0.4198881,-0.04921615,0.9079983,-21.73155,6.967132,-63.65315,1008.895
3.933460236,0.2005018,-0.02907075,-0.08017892,0.4130659,-0.04348295,0.9171445,-21.73155,6.967132,-63.65315,1008.895
3.938390732,-0.1056184,-0.02907075,0.04166655,0.4154264,-0.03618535,0.9086339,-21.73155,6.967132,-63.65315,1008.895
3.943316460,0.0168297,0.03091782,0.04166655,0.4140295,-0.04346524,0.9133251,-21.73155,6.967132,-63.65315,1008.895
3.948246479,-0.1668424,-0.2690251,0.04166655,0.4169589,-0.04586189,0.9123375,-21.73155,6.967132,-63.65315,1008.895
3.953176975,0.07805371,-0.02907075,-0.08017892,0.4188651,-0.041965,0.9076065,-22.03048,6.968436,-63.20826,1008.895
3.958106995,0.07805371,0.150895,0.04166655,0.4130157,-0.03910101,0.9076505,-22.03048,6.968436,-63.20826,1008.895
3.963037014,0.07805371,-0.02907075,0.04166655,0.4164572,-0.04201069,0.9176324,-22.03048,6.968436,-63.20826,1008.895
3.967967510,0.07805371,0.0909064,-0.01925619,0.4183943,-0.0419894,0.9147656,-22.03048,6.968436,-63.20826,1008.895
3.972897530,-0.04439433,0.0909064,0.04166655,0.4183778,-0.04005019,0.9133562,-22.03048,6.968436,-63.20826,1008.895
3.977827549,0.1392777,0.150895,-0.01925619,0.4135639,-0.0463709,0.9132925,-22.03048,6.968436,-63.20826,1008.895
3.982758045,0.0168297,0.0909064,-0.08017892,0.4193647,-0.04437628,0.906146,-22.03048,6.968436,-63.20826,1008.891
3.987688065,0.2005018,-0.02907075,-0.01925619,0.4154712,-0.04391253,0.9042498,-22.03048,6.968436,-63.20826,1008.891
3.992618084,0.07805371,0.150895,-0.01925619,0.417451,-0.04634667,0.9137627,-22.03048,6.968436,-63.20826,1008.891
3.997548580,-0.04439433,0.2108836,-0.01925619,0.4144354,-0.03185361,0.9139353,-22.03048,6.968436,-63.20826,1008.891
4.004943848,0.0168297,0.150895,-0.08017892,0.4144705,-0.03717196,0.9129195,-22.03616,7.344561,-63.21253,1008.891
4.009873867,0.07805371,0.03091782,-0.01925619,0.4154434,-0.03764647,0.9119577,-22.03616,7.344561,-63.21253,1008.891
4.014803886,0.0168297,0.150895,0.04166655,0.4164436,-0.04247042,0.9095141,-22.03616,7.344561,-63.21253,1008.891
4.019734383,0.0168297,0.150895,-0.08017892,0.4203512,-0.04439105,0.9133025,-22.03616,7.344561,-63.21253,1008.891
4.024664402,-0.04439433,0.150895,-0.01925619,0.4164325,-0.04101778,0.9090537,-22.03616,7.344561,-63.21253,1008.891
4.029594421,-0.1056184,-0.08905933,-0.1411017,0.4174366,-0.04441029,0.9133078,-22.03616,7.344561,-63.21253,1008.891
4.034524918,0.1392777,0.0909064,-0.2020244,0.4120764,-0.04202684,0.9133453,-22.03616,7.344561,-63.21253,1008.891
4.039458752,-0.04439433,0.2108836,-0.01925619,0.4145173,-0.04346486,0.9142787,-22.03616,7.344561,-63.21253,1008.891
4.044384956,0.07805371,0.03091782,-0.01925619,0.4150093,-0.04394963,0.9157038,-22.03616,7.344561,-63.21253,1008.891
4.049315453,-0.04439433,0.03091782,-0.08017892,0.4178917,-0.03957389,0.9147944,-21.73155,6.967132,-63.65315,1008.891
4.054245472,0.0168297,0.2108836,-0.08017892,0.4193642,-0.04245966,0.9123722,-21.73155,6.967132,-63.65315,1008.891
4.059175491,0.2005018,0.0909064,-0.1411017,0.4183718,-0.04004171,0.910493,-21.73155,6.967132,-63.65315,1008.891
4.064105511,0.1392777,0.03091782,-0.01925619,0.4178839,-0.04099969,0.9061877,-21.73155,6.967132,-63.65315,1008.891
4.069036007,0.07805371,0.150895,-0.1411017,0.4150551,-0.05024112,0.9165857,-21.73155,6.967132,-63.65315,1008.891
4.073966026,0.07805371,0.0909064,0.04166655,0.4183564,-0.03810391,0.9095609,-21.73155,6.967132,-63.65315,1008.891
4.078896046,0.1392777,0.2108836,-0.08017892,0.4174174,-0.04150924,0.9138185,-21.73155,6.967132,-63.65315,1008.891
4.083826542,-0.04439433,0.2708721,-0.01925619,0.4149846,-0.04151962,0.911914,-21.73155,6.967132,-63.65315,1008.891
4.088756561,0.0168297,0.0909064,-0.08017892,0.4169253,-0.04102446,0.9123933,-21.73155,6.967132,-63.65315,1008.891
4.093686581,0.0168297,0.150895,0.04166655,0.4154928,-0.0434641,0.9161857,-21.73155,6.967132,-63.65315,1008.891
4.098617077,0.0168297,0.150895,-0.08017892,0.4154999,-0.04491109,0.9147374,-22.04562,6.588212,-64.01927,1008.891
4.103547096,-0.04439433,0.150895,-0.08017892,0.4164523,-0.04344074,0.9104574,-22.04562,6.588212,-64.01927,1008.89
4.108477116,-0.04439433,0.03091782,-0.08017892,0.4139909,-0.03862075,0.9109948,-22.04562,6.588212,-64.01927,1008.89
4.113407612,0.07805371,0.0909064,-0.01925619,0.4106115,-0.04010995,0.9162335,-22.04562,6.588212,-64.01927,1008.89
4.118337631,0.07805371,0.2708721,-0.01925619,0.4149853,-0.04247863,0.9090396,-22.04562,6.588212,-64.01927,1008.89
4.123267651,0.0168297,0.03091782,-0.1411017,0.4183832,-0.04053676,0.9143052,-22.04562,6.588212,-64.01927,1008.89
4.128198147,-0.04439433,0.03091782,-0.1411017,0.4159852,-0.04442838,0.9161737,-22.04562,6.588212,-64.01927,1008.89
4.133132935,0.0168297,0.150895,-0.2020244,0.4159569,-0.04247221,0.9090378,-22.04562,6.588212,-64.01927,1008.89
4.138058186,-0.04439433,0.03091782,-0.08017892,0.4125692,-0.04347062,0.911896,-22.04562,6.588212,-64.01927,1008.89
4.142984867,0.07805371,-0.08905933,-0.1411017,0.4120702,-0.04058126,0.915271,-22.04562,6.588212,-64.01927,1008.89
4.147914410,-0.2892904,0.0909064,-0.08017892,0.416941,-0.04200466,0.9166771,-21.34816,6.970423,-63.22124,1008.888
4.152844429,-0.04439433,0.0909064,-0.1411017,0.4130723,-0.04397094,0.9185706,-21.34816,6.970423,-63.22124,1008.888
4.157774925,-0.1056184,0.2708721,-0.01925619,0.4135442,-0.04155325,0.9200293,-21.34816,6.970423,-63.22124,1008.888
4.162704945,-0.1056184,0.03091782,-0.08017892,0.4154592,-0.04006377,0.9114527,-21.34816,6.970423,-63.22124,1008.888
4.167634964,-0.04439433,0.0909064,-0.1411017,0.4140109,-0.0400861,0.9157502,-21.34816,6.970423,-63.22124,1008.888
4.172565460,0.0168297,-0.02907075,-0.01925619,0.4188852,-0.04343035,0.9123619,-21.34816,6.970423,-63.22124,1008.888
4.177495480,0.0168297,0.03091782,0.04166655,0.4149453,-0.03715321,0.9076693,-21.34816,6.970423,-63.22124,1008.888
4.184890747,-0.1668424,-0.08905933,-0.1411017,0.4130517,-0.04058897,0.9200414,-21.34816,6.970423,-63.22124,1008.89
4.189820766,-0.04439433,0.2108836,-0.01925619,0.4164455,-0.04103614,0.9152575,-21.34816,6.970423,-63.22124,1008.89
4.194751263,-0.1668424,0.0909064,-0.01925619,0.4164096,-0.03715349,0.9110072,-21.34816,6.970423,-63.22124,1008.89
4.199681282,-0.1056184,-0.02907075,0.04166655,0.4140087,-0.04104088,0.9114441,-22.41387,6.965144,-63.64018,1008.89
4.204611301,0.1392777,-0.1490479,0.163512,0.4184365,-0.04636003,0.9204419,-22.41387,6.965144,-63.64018,1008.89
4.209541798,-0.04439433,-0.08905933,0.04166655,0.4193549,-0.04196745,0.9095145,-22.41387,6.965144,-63.64018,1008.89
4.214471817,-0.1668424,0.0909064,0.04166655,0.4154478,-0.03813162,0.9124294,-22.41387,6.965144,-63.64018,1008.89
4.219401836,0.07805371,0.03091782,0.04166655,0.4125839,-0.0444494,0.9157026,-22.41387,6.965144,-63.64018,1008.89
4.224332333,-0.04439433,0.150895,0.1025893,0.4135309,-0.04105538,0.9152628,-22.41387,6.965144,-63.64018,1008.89
4.229262352,-0.1668424,-0.1490479,-0.08017892,0.4159454,-0.04054007,0.9100146,-22.41387,6.965144,-63.64018,1008.889
4.234192371,-0.1056184,0.0909064,0.1025893,0.4140499,-0.0454101,0.9166433,-22.41387,6.965144,-63.64018,1008.889
4.239122391,-0.1056184,-0.08905933,0.1025893,0.4125581,-0.04201798,0.9114355,-22.41387,6.965144,-63.64018,1008.889
4.244052887,-0.1668424,-0.02907075,-0.01925619,0.4125924,-0.04637732,0.9132943,-22.41387,6.965144,-63.64018,1008.889
4.248982906,-0.2280664,-0.02907075,0.04166655,0.4169613,-0.04634422,0.9118547,-21.71465,6.593214,-63.20989,1008.889
4.253912926,0.07805371,0.03091782,-0.08017892,0.4169403,-0.04248276,0.9147627,-21.71465,6.593214,-63.20989,1008.889
4.258843422,0.07805371,-0.08905933,-0.01925619,0.4183879,-0.04150142,0.9133396,-21.71465,6.593214,-63.20989,1008.889
4.263773441,-0.1056184,0.0909064,-0.08017892,0.4145389,-0.04445354,0.9214257,-21.71465,6.593214,-63.20989,1008.889
4.268703938,-0.1056184,-0.02907075,-0.01925619,0.4091605,-0.04300226,0.9095217,-21.71465,6.593214,-63.20989,1008.89
4.273633957,0.0168297,-0.02907075,0.04166655,0.4169334,-0.04247287,0.9114221,-21.71465,6.593214,-63.20989,1008.89
4.278563976,-0.1056184,-0.08905933,-0.08017892,0.4164431,-0.04055382,0.9157403,-21.71465,6.593214,-63.20989,1008.89
4.283493996,0.07805371,-0.02907075,-0.01925619,0.4155019,-0.04491392,0.9156918,-21.71465,6.593214,-63.20989,1008.89
4.288424492,0.07805371,-0.2090365,0.1025893,0.416427,-0.03909411,0.9128937,-21.71465,6.593214,-63.20989,1008.89
4.293354511,-0.1668424,-0.08905933,-0.01925619,0.4159628,-0.04248069,0.9119011,-21.72033,6.969339,-63.21416,1008.89
4.298284531,0.07805371,0.0909064,-0.01925619,0.4169476,-0.04536685,0.9085253,-21.72033,6.969339,-63.21416,1008.89
4.303215027,0.0168297,-0.2690251,0.04166655,0.4111145,-0.04300497,0.9147676,-21.72033,6.969339,-63.21416,1008.89
4.308145046,-0.1056184,0.0909064,-0.01925619,0.4149709,-0.04054225,0.9085847,-21.72033,6.969339,-63.21416,1008.89
4.313075066,-0.04439433,0.03091782,0.163512,0.4120764,-0.04202684,0.9133453,-21.72033,6.969339,-63.21416,1008.89
4.318005562,-0.1668424,-0.08905933,0.04166655,0.416457,-0.0429683,0.9142808,-21.72033,6.969339,-63.21416,1008.89
4.322935581,0.1392777,0.0909064,-0.08017892,0.4154924,-0.04298459,0.917623,-21.72033,6.969339,-63.21416,1008.89
4.327865601,-0.04439433,0.0909064,0.04166655,0.414519,-0.04442528,0.9118814,-21.72033,6.969339,-63.21416,1008.89
4.332796097,0.07805371,-0.1490479,-0.01925619,0.4159722,-0.04297291,0.9147588,-21.72033,6.969339,-63.21416,1008.89
4.337726116,0.07805371,0.2108836,0.04166655,0.4072074,-0.03916914,0.9176825,-21.72033,6.969339,-63.21416,1008.89
4.342651844,0.07805371,-0.08905933,0.04166655,0.4130433,-0.04249286,0.9095203,-22.03616,7.344561,-63.21253,1008.89
4.347582817,0.1392777,0.150895,0.04166655,0.4125672,-0.04346779,0.9109417,-22.03616,7.344561,-63.21253,1008.89
4.352512360,0.0168297,-0.02907075,0.04166655,0.4149818,-0.04055779,0.913834,-22.03616,7.344561,-63.21253,1008.89
4.359907627,-0.04439433,0.0909064,0.2244348,0.413997,-0.04006632,0.9090692,-22.03616,7.344561,-63.21253,1008.89
4.364837647,-0.1668424,0.0909064,-0.08017892,0.4159662,-0.04296444,0.9118955,-22.03616,7.344561,-63.21253,1008.89
4.369768620,0.07805371,0.03091782,0.04166655,0.4193853,-0.04536353,0.9128159,-22.03616,7.344561,-63.21253,1008.89
4.374698162,0.07805371,0.03091782,-0.01925619,0.414499,-0.04056523,0.9152666,-22.03616,7.344561,-63.21253,1008.89
4.379628182,0.0168297,0.03091782,-0.08017892,0.4159511,-0.04150615,0.9095262,-22.03616,7.344561,-63.21253,1008.89
4.384559155,0.07805371,0.150895,0.04166655,0.4154702,-0.04007931,0.916702,-22.03616,7.344561,-63.21253,1008.89
4.389488697,0.0168297,0.0909064,-0.08017892,0.416934,-0.04199478,0.9133366,-22.03616,7.344561,-63.21253,1008.889
4.394418717,0.07805371,0.150895,0.04166655,0.4193666,-0.042942,0.9118894,-21.73723,7.343257,-63.65742,1008.889
4.399349690,0.07805371,0.03091782,-0.01925619,0.4188737,-0.04149821,0.9133387,-21.73723,7.343257,-63.65742,1008.889
4.404279232,0.07805371,0.03091782,0.163512,0.4179374,-0.04586537,0.9156762,-21.73723,7.343257,-63.65742,1008.889
4.409209251,-0.04439433,0.0909064,-0.1411017,0.4096273,-0.0391404,0.9133832,-21.73723,7.343257,-63.65742,1008.889
4.414139271,0.1392777,0.03091782,-0.01925619,0.4179061,-0.04151027,0.9152493,-21.73723,7.343257,-63.65742,1008.889
4.419069767,0.0168297,-0.08905933,-0.08017892,0.4183804,-0.03957492,0.9162251,-21.73723,7.343257,-63.65742,1008.889
4.423999786,0.1392777,-0.08905933,-0.08017892,0.418393,-0.04294559,0.9109367,-21.73723,7.343257,-63.65742,1008.889
4.428929806,0.0168297,0.03091782,-0.1411017,0.4140244,-0.04202107,0.9157279,-21.73723,7.343257,-63.65742,1008.887
4.433860302,-0.1056184,0.03091782,-0.01925619,0.4140053,-0.04055713,0.9114497,-21.73723,7.343257,-63.65742,1008.887
4.438790321,-0.1056184,-0.02907075,-0.1411017,0.4174106,-0.04054176,0.9138296,-21.73723,7.343257,-63.65742,1008.887
4.443720341,-0.04439433,0.2108836,-0.1411017,0.412589,-0.04589357,0.9132999,-21.73155,6.967132,-63.65315,1008.887
4.448650837,-0.04439433,0.0909064,-0.08017892,0.4159396,-0.039574,0.910503,-21.73155,6.967132,-63.65315,1008.887
4.453580856,0.07805371,-0.08905933,-0.01925619,0.4130471,-0.04106141,0.916218,-21.73155,6.967132,-63.65315,1008.887
4.458510876,0.07805371,0.03091782,0.04166655,0.416473,-0.044428,0.9171273,-21.73155,6.967132,-63.65315,1008.887
4.463441372,-0.1056184,0.03091782,-0.01925619,0.4130328,-0.04056213,0.9109743,-21.73155,6.967132,-63.65315,1008.887
4.468371391,0.07805371,-0.08905933,-0.08017892,0.4125699,-0.04059783,0.9219511,-21.73155,6.967132,-63.65315,1008.891
4.473301411,0.0168297,0.150895,-0.01925619,0.4154898,-0.04345986,0.9147542,-21.73155,6.967132,-63.65315,1008.891
4.478231907,-0.04439433,-0.08905933,-0.01925619,0.4169321,-0.04342905,0.9075933,-21.73155,6.967132,-63.65315,1008.891
4.483161926,-0.1056184,0.150895,-0.01925619,0.4149592,-0.0395677,0.9062097,-21.73155,6.967132,-63.65315,1008.891
4.488091946,-0.04439433,-0.08905933,0.04166655,0.416005,-0.04685133,0.9175775,-21.73155,6.967132,-63.65315,1008.891
4.493022442,-0.1056184,0.150895,0.1025893,0.4154775,-0.04296341,0.9104648,-21.73155,6.967132,-63.65315,1008.891
4.497952461,0.2005018,-0.08905933,0.04166655,0.4159866,-0.04490929,0.9152138,-21.73155,6.967132,-63.65315,1008.891
4.502882481,0.0168297,-0.08905933,-0.1411017,0.412557,-0.04057946,0.9157472,-21.73155,6.967132,-63.65315,1008.891
4.507812977,-0.1056184,-0.1490479,0.1025893,0.4154711,-0.04247542,0.9090387,-21.73155,6.967132,-63.65315,1008.891
4.512742996,0.0168297,0.2708721,-0.2020244,0.4183897,-0.04246184,0.9109423,-21.73155,6.967132,-63.65315,1008.893
4.517673016,-0.04439433,-0.02907075,-0.01925619,0.4135588,-0.04492674,0.9156953,-21.73155,6.967132,-63.65315,1008.893
4.522603512,0.0168297,0.0909064,0.04166655,0.4159547,-0.04103229,0.9128723,-21.73155,6.967132,-63.65315,1008.893
4.527533531,0.07805371,-0.02907075,-0.1411017,0.4159484,-0.04054431,0.9114462,-21.73155,6.967132,-63.65315,1008.893
4.534928799,0.0168297,-0.02907075,0.1025893,0.4125511,-0.04200809,0.9080951,-21.73155,6.967132,-63.65315,1008.893
4.539858818,-0.1668424,0.0909064,0.1025893,0.4159608,-0.04247786,0.9109467,-21.73548,6.589115,-64.02517,1008.893
4.544785500,-0.04439433,-0.02907075,-0.08017892,0.4135261,-0.04009072,0.9162282,-21.73548,6.589115,-64.02517,1008.893
4.549715519,0.0168297,-0.08905933,-0.01925619,0.415942,-0.04005633,0.9100202,-21.73548,6.589115,-64.02517,1008.891
4.554645062,0.07805371,-0.02907075,0.04166655,0.4135148,-0.03959567,0.9124162,-21.73548,6.589115,-64.02517,1008.891
4.559576035,0.0168297,0.03091782,-0.01925619,0.4120823,-0.04203531,0.9162086,-21.73548,6.589115,-64.02517,1008.891
4.564506054,-0.1056184,-0.1490479,-0.01925619,0.4169427,-0.04296509,0.9142799,-21.73548,6.589115,-64.02517,1008.891
4.569441319,-0.1668424,-0.02907075,-0.01925619,0.4149775,-0.04007262,0.9133624,-21.73548,6.589115,-64.02517,1008.891
4.574366570,-0.1056184,0.03091782,-0.01925619,0.4164383,-0.04198386,0.9085653,-21.73548,6.589115,-64.02517,1008.891
4.579296589,-0.04439433,0.03091782,0.04166655,0.4120865,-0.04347806,0.9133286,-21.73548,6.589115,-64.02517,1008.891
4.584230900,0.0168297,-0.1490479,0.04166655,0.4169401,-0.04344036,0.9114109,-21.73548,6.589115,-64.02517,1008.891
4.589156151,-0.1056184,0.0909064,0.04166655,0.4115929,-0.04251236,0.9128634,-21.74131,7.719697,-63.59898,1008.891
4.594087124,0.1392777,-0.08905933,0.04166655,0.4135503,-0.04299883,0.9181037,-21.74131,7.719697,-63.59898,1008.891
4.599016667,0.0168297,-0.2090365,-0.08017892,0.414014,-0.04152744,0.912393,-21.74131,7.719697,-63.59898,1008.891
4.603946686,0.0168297,0.03091782,-0.01925619,0.4159553,-0.0405542,0.9147867,-21.74131,7.719697,-63.59898,1008.891
4.608877182,-0.04439433,-0.08905933,-0.01925619,0.4125661,-0.04202928,0.9152533,-21.74131,7.719697,-63.59898,1008.891
4.613807202,0.07805371,-0.02907075,0.2244348,0.4159819,-0.04394463,0.9161792,-21.74131,7.719697,-63.59898,1008.891
4.618737221,-0.04439433,-0.1490479,0.04166655,0.4159634,-0.0420026,0.9138156,-21.74131,7.719697,-63.59898,1008.891
4.623667717,-0.04439433,0.03091782,-0.01925619,0.412589,-0.04589357,0.9132999,-21.74131,7.719697,-63.59898,1008.891
4.628597737,-0.04439433,-0.2690251,-0.01925619,0.4125381,-0.03815792,0.9148207,-21.74131,7.719697,-63.59898,1008.891
4.633527756,0.0168297,-0.08905933,0.04166655,0.412559,-0.04441409,0.9037723,-21.74131,7.719697,-63.59898,1008.893
4.638458252,-0.04439433,-0.2090365,-0.08017892,0.4145426,-0.04541678,0.919983,-22.03048,6.968436,-63.20826,1008.893
4.643388271,-0.1668424,0.0909064,0.163512,0.4183914,-0.04342226,0.908545,-22.03048,6.968436,-63.20826,1008.893
4.648318291,-0.04439433,-0.1490479,-0.1411017,0.4174047,-0.04053328,0.9109663,-22.03048,6.968436,-63.20826,1008.893
4.653248787,0.2005018,0.0909064,0.163512,0.4149943,-0.04249134,0.9133345,-22.03048,6.968436,-63.20826,1008.893
4.658178806,-0.04439433,-0.08905933,-0.01925619,0.4125702,-0.04347203,0.9123733,-22.03048,6.968436,-63.20826,1008.893
4.663108826,0.0168297,-0.08905933,-0.01925619,0.4130633,-0.04395822,0.9142757,-22.03048,6.968436,-63.20826,1008.893
4.668039322,0.1392777,0.0909064,0.04166655,0.4145121,-0.04202069,0.9166815,-22.03048,6.968436,-63.20826,1008.893
4.672969341,-0.1056184,-0.02907075,-0.01925619,0.4140342,-0.0444299,0.9123595,-22.03048,6.968436,-63.20826,1008.895
4.677899361,0.07805371,0.03091782,0.04166655,0.4188586,-0.04003992,0.9109693,-22.03048,6.968436,-63.20826,1008.895
4.682829857,0.07805371,-0.1490479,-0.1411017,0.4160162,-0.04830398,0.918038,-22.03048,6.968436,-63.20826,1008.895
4.687759876,0.0168297,0.03091782,-0.01925619,0.4139909,-0.03862075,0.9109948,-21.73155,6.967132,-63.65315,1008.895
4.692690373,0.07805371,-0.08905933,-0.08017892,0.414513,-0.04441681,0.9090182,-21.73155,6.967132,-63.65315,1008.895
4.697620392,-0.1056184,-0.08905933,-0.01925619,0.4125661,-0.04202928,0.9152533,-21.73155,6.967132,-63.65315,1008.895
4.702550411,-0.04439433,-0.2090365,-0.01925619,0.4154638,-0.03959133,0.915276,-21.73155,6.967132,-63.65315,1008.895
4.709945679,-0.1056184,-0.02907075,0.1025893,0.4130362,-0.04104587,0.9109687,-21.73155,6.967132,-63.65315,1008.895
4.764177799,-0.04439433,-0.02907075,0.1025893,0.4140396,-0.04491647,0.9133084,-21.73155,6.967132,-63.65315,1008.897
4.764173984,-0.04439433,-0.02907075,0.1025893,0.4140396,-0.04491647,0.9133084,-21.73155,6.967132,-63.65315,1008.897
4.835661411,0.07805371,0.150895,-0.01925619,0.4154741,-0.04247966,0.9104704,-22.02087,6.970327,-62.83198,1008.899
4.865242481,-0.1056184,0.0909064,-0.01925619,0.4183503,-0.03665834,0.9114864,-22.02087,6.970327,-62.83198,1008.899
4.875106335,-0.04439433,0.0909064,0.04166655,0.4145156,-0.04394154,0.9118869,-22.02087,6.970327,-62.83198,1008.899
4.887427807,-0.04439433,-0.02907075,-0.01925619,0.414985,-0.03960443,0.9186174,-21.35369,6.592091,-63.65597,1008.899
4.889892578,0.1392777,0.03091782,-0.08017892,0.4164457,-0.04007855,0.9186091,-21.35369,6.592091,-63.65597,1008.899
4.899753094,-0.04439433,-0.08905933,0.1025893,0.4130408,-0.04057343,0.914792,-21.35369,6.592091,-63.65597,1008.899
4.909613609,-0.04439433,0.0909064,0.1025893,0.4159894,-0.04587113,0.9132937,-21.35369,6.592091,-63.65597,1008.899
4.988496304,-0.04439433,0.03091782,-0.08017892,0.4155012,-0.04539201,0.9137774,-21.34247,6.594298,-63.21697,1008.899
4.993422508,0.0168297,0.03091782,-0.08017892,0.4139874,-0.0366999,0.9157892,-21.34247,6.594298,-63.21697,1008.899
4.998352051,0.1392777,0.150895,-0.01925619,0.4159577,-0.04103653,0.914304,-21.34247,6.594298,-63.21697,1008.905
5.003283024,0.0168297,-0.02907075,0.1025893,0.4174179,-0.04342585,0.9075924,-21.34247,6.594298,-63.21697,1008.905
5.008213043,-0.04439433,-0.02907075,0.1025893,0.4159678,-0.04248775,0.9142872,-21.34247,6.594298,-63.21697,1008.905
5.013142586,-0.1668424,-0.02907075,-0.01925619,0.4159699,-0.04392768,0.9104527,-21.34247,6.594298,-63.21697,1008.905
5.018073559,0.07805371,-0.02907075,0.04166655,0.4120879,-0.04156428,0.9205091,-21.34247,6.594298,-63.21697,1008.905
5.023003578,0.07805371,-0.08905933,-0.08017892,0.4169276,-0.04150679,0.9119105,-21.34247,6.594298,-63.21697,1008.905
5.027933121,-0.1056184,-0.02907075,0.04166655,0.4174057,-0.04053469,0.9114435,-22.04169,6.966228,-63.64725,1008.905
5.032864094,0.0168297,-0.2090365,-0.01925619,0.4154697,-0.0419945,0.9099987,-22.04169,6.966228,-63.64725,1008.905
5.037794113,0.07805371,0.03091782,0.04166655,0.4169639,-0.04586896,0.9147236,-22.04169,6.966228,-63.64725,1008.903
5.042723656,-0.2280664,0.0909064,-0.01925619,0.4120795,-0.04346817,0.9099881,-22.04169,6.966228,-63.64725,1008.903
5.047654629,-0.04439433,-0.08905933,-0.08017892,0.4159641,-0.04152451,0.9157299,-22.04169,6.966228,-63.64725,1008.903
5.052584648,-0.04439433,-0.1490479,-0.08017892,0.4116003,-0.04300176,0.9147667,-22.04169,6.966228,-63.64725,1008.903
5.057514191,-0.04439433,-0.08905933,-0.01925619,0.4149862,-0.04104294,0.9143057,-22.04169,6.966228,-63.64725,1008.903
5.064909458,0.0168297,-0.02907075,0.04166655,0.4120485,-0.03959258,0.9081239,-22.04169,6.966228,-63.64725,1008.903
5.069840431,0.07805371,-0.1490479,-0.08017892,0.4116003,-0.04300176,0.9147667,-22.04169,6.966228,-63.64725,1008.903
5.074769974,-0.1056184,-0.02907075,0.04166655,0.4149876,-0.04152386,0.9133457,-21.73155,6.967132,-63.65315,1008.903
5.079699993,-0.1056184,-0.02907075,-0.01925619,0.4198496,-0.04197695,0.9138085,-21.73155,6.967132,-63.65315,1008.903
5.084630966,-0.04439433,0.03091782,0.163512,0.4164411,-0.04055099,0.9147859,-21.73155,6.967132,-63.65315,1008.903
5.089560509,0.07805371,0.03091782,0.04166655,0.4130622,-0.0425197,0.9185874,-21.73155,6.967132,-63.65315,1008.903
5.094490528,0.0168297,0.03091782,0.1025893,0.4174296,-0.0444004,0.9099674,-21.73155,6.967132,-63.65315,1008.903
5.099421501,-0.1668424,-0.08905933,-0.08017892,0.4164619,-0.04297536,0.9166668,-21.73155,6.967132,-63.65315,1008.903
5.104351044,-0.1056184,-0.08905933,-0.08017892,0.4159598,-0.04247645,0.9104695,-21.73155,6.967132,-63.65315,1008.903
5.109281063,-0.1056184,-0.02907075,0.04166655,0.4164118,-0.03619872,0.9153133,-21.73155,6.967132,-63.65315,1008.903
5.114214420,-0.1056184,-0.2090365,-0.01925619,0.4135078,-0.03958579,0.9090757,-21.73155,6.967132,-63.65315,1008.903
5.119141579,0.0168297,0.150895,0.163512,0.4149981,-0.04345459,0.9118916,-21.73155,6.967132,-63.65315,1008.903
5.124071598,-0.1056184,-0.1490479,-0.01925619,0.4208576,-0.0453751,0.9199716,-22.03048,6.968436,-63.20826,1008.903
5.129002571,0.07805371,-0.02907075,-0.01925619,0.4120751,-0.04298302,0.9095165,-22.03048,6.968436,-63.20826,1008.903
5.133932114,-0.1056184,-0.02907075,0.04166655,0.4130429,-0.04201336,0.9109575,-22.03048,6.968436,-63.20826,1008.903
5.138862133,0.07805371,-0.08905933,0.163512,0.4188549,-0.03907667,0.9124121,-22.03048,6.968436,-63.20826,1008.903
5.143793106,-0.1668424,-0.08905933,0.1025893,0.4150147,-0.04443621,0.9166527,-22.03048,6.968436,-63.20826,1008.903
5.148722649,0.0168297,0.150895,-0.01925619,0.4135532,-0.04539777,0.9113948,-22.03048,6.968436,-63.20826,1008.903
5.153652668,-0.04439433,0.03091782,0.2244348,0.4140073,-0.04055996,0.9124041,-22.03048,6.968436,-63.20826,1008.903
5.158583164,0.0168297,0.0909064,-0.1411017,0.4193829,-0.0434441,0.9180876,-22.03048,6.968436,-63.20826,1008.903
5.163513184,-0.04439433,-0.1490479,-0.01925619,0.416452,-0.04296123,0.9118946,-22.03048,6.968436,-63.20826,1008.903
5.168443203,-0.1056184,-0.08905933,-0.08017892,0.4135366,-0.04202145,0.9147744,-22.03048,6.968436,-63.20826,1008.903
5.173373699,0.07805371,-0.08905933,0.163512,0.4149838,-0.04056061,0.9147885,-21.73723,7.343257,-63.65742,1008.903
5.178303719,0.0168297,-0.1490479,0.04166655,0.4115638,-0.0395972,0.9086019,-21.73723,7.343257,-63.65742,1008.903
5.183233738,-0.1056184,-0.1490479,0.04166655,0.4096471,-0.04156335,0.9147869,-21.73723,7.343257,-63.65742,1008.903
5.188163757,0.0168297,0.03091782,-0.01925619,0.414505,-0.0405737,0.9181298,-21.73723,7.343257,-63.65742,1008.903
5.193090439,0.0168297,-0.02907075,0.1025893,0.4154511,-0.03861536,0.9124238,-21.73723,7.343257,-63.65742,1008.903
5.198020458,-0.04439433,-0.2090365,0.04166655,0.4183943,-0.0419894,0.9147656,-21.73723,7.343257,-63.65742,1008.903
5.202950478,-0.1056184,0.0909064,0.04166655,0.4178933,-0.0390972,0.917186,-21.73723,7.343257,-63.65742,1008.903
5.207880974,-0.04439433,-0.1490479,0.1025893,0.4130626,-0.04299921,0.9171501,-21.73723,7.343257,-63.65742,1008.903
5.212810993,-0.04439433,-0.02907075,-0.01925619,0.4125341,-0.03815227,0.9129118,-21.73723,7.343257,-63.65742,1008.903
5.217741013,-0.04439433,-0.08905933,0.04166655,0.4159507,-0.04102664,0.9109634,-21.73723,7.343257,-63.65742,1008.903
5.222671509,-0.04439433,-0.08905933,-0.01925619,0.4159598,-0.04247645,0.9104695,-21.72033,6.969339,-63.21416,1008.903
5.227601528,-0.04439433,-0.1490479,0.163512,0.4179069,-0.04246928,0.9123748,-21.72033,6.969339,-63.21416,1008.903
5.232532024,-0.04439433,-0.08905933,0.04166655,0.4179311,-0.04537739,0.9142503,-21.72033,6.969339,-63.21416,1008.903
5.237463474,-0.1668424,0.150895,-0.01925619,0.4111108,-0.04204172,0.9162104,-21.72033,6.969339,-63.21416,1008.903
5.244857311,0.0168297,0.03091782,0.1025893,0.4154745,-0.04295917,0.9090331,-21.72033,6.969339,-63.21416,1008.903
5.249787331,-0.04439433,-0.02907075,0.04166655,0.4222662,-0.03906977,0.9176553,-21.72033,6.969339,-63.21416,1008.903
5.254719734,0.1392777,-0.08905933,0.04166655,0.4154795,-0.04296623,0.9114192,-21.72033,6.969339,-63.21416,1008.903
5.259647846,-0.04439433,-0.02907075,0.1025893,0.4164469,-0.04151706,0.9142975,-21.72033,6.969339,-63.21416,1008.903
5.264577866,-0.04439433,-0.08905933,-0.01925619,0.4184218,-0.04538125,0.9166354,-21.72033,6.969339,-63.21416,1008.903
5.269507408,-0.1056184,-0.08905933,-0.01925619,0.4140388,-0.04395746,0.9161828,-21.72033,6.969339,-63.21416,1008.903
5.274438381,0.0168297,-0.08905933,-0.01925619,0.4174234,-0.04151772,0.9166818,-22.39697,6.591227,-63.19692,1008.903
5.279368401,-0.1056184,-0.08905933,-0.08017892,0.4135615,-0.04588857,0.9137753,-22.39697,6.591227,-63.19692,1008.903
5.284297943,-0.1056184,-0.08905933,-0.01925619,0.4154888,-0.04345845,0.914277,-22.39697,6.591227,-63.19692,1008.903
5.289228916,-0.1056184,-0.08905933,0.2244348,0.414018,-0.04153309,0.9143019,-22.39697,6.591227,-63.19692,1008.903
5.294158936,-0.04439433,-0.02907075,0.04166655,0.4179317,-0.0448993,0.9161646,-22.39697,6.591227,-63.19692,1008.903
5.299088478,-0.1056184,0.03091782,0.163512,0.417411,-0.04102126,0.9123924,-22.39697,6.591227,-63.19692,1008.903
5.304019451,-0.1056184,-0.02907075,0.04166655,0.4130138,-0.03670349,0.9148366,-22.39697,6.591227,-63.19692,1008.903
5.308949471,-0.04439433,-0.02907075,-0.2020244,0.4169265,-0.04006828,0.9162222,-22.39697,6.591227,-63.19692,1008.903
5.313879013,-0.04439433,0.0909064,-0.01925619,0.4120619,-0.04009045,0.9128904,-22.39697,6.591227,-63.19692,1008.903
5.318809986,-0.04439433,-0.1490479,0.04166655,0.4145173,-0.04346486,0.9142787,-21.72033,6.969339,-63.21416,1008.903
5.323740006,-0.1056184,-0.2690251,-0.2020244,0.410159,-0.04447109,0.9176159,-21.72033,6.969339,-63.21416,1008.903
5.328669548,-0.04439433,0.03091782,0.1025893,0.4115882,-0.04154771,0.913829,-21.72033,6.969339,-63.21416,1008.903
5.333600521,-0.04439433,-0.02907075,-0.2020244,0.4145157,-0.04154684,0.9200276,-21.72033,6.969339,-63.21416,1008.903
5.338530541,0.0168297,-0.2090365,0.1025893,0.4120886,-0.04491799,0.9094942,-21.72033,6.969339,-63.21416,1008.903
5.343463421,-0.04439433,-0.08905933,-0.08017892,0.4178791,-0.04003502,0.9071533,-21.72033,6.969339,-63.21416,1008.903
5.348391056,0.0168297,-0.02907075,0.1025893,0.4125278,-0.03766429,0.9114858,-21.72033,6.969339,-63.21416,1008.903
5.353320599,-0.2892904,-0.08905933,-0.01925619,0.42081,-0.0405179,0.9133463,-21.72033,6.969339,-63.21416,1008.903
5.358250618,0.0168297,-0.08905933,0.04166655,0.4149616,-0.03765532,0.9138675,-21.72033,6.969339,-63.21416,1008.903
5.363181591,-0.1056184,-0.1490479,-0.08017892,0.4140307,-0.04250905,0.917154,-21.72033,6.969339,-63.21416,1008.903
5.368111134,-0.04439433,-0.02907075,-0.1411017,0.4135392,-0.04154618,0.9176432,-21.33854,6.972315,-62.84496,1008.903
5.373041153,0.0168297,0.03091782,0.163512,0.4164551,-0.04440257,0.9085374,-21.33854,6.972315,-62.84496,1008.903
5.377972126,-0.04439433,-0.1490479,-0.01925619,0.4130764,-0.04541369,0.9156906,-21.33854,6.972315,-62.84496,1008.903
5.382901669,-0.2280664,-0.02907075,0.163512,0.41452,-0.04442669,0.9123586,-21.33854,6.972315,-62.84496,1008.903
5.387831688,-0.04439433,0.0909064,-0.01925619,0.4115911,-0.04394665,0.9071201,-21.33854,6.972315,-62.84496,1008.903
5.392758370,0.0168297,-0.08905933,-0.08017892,0.4169195,-0.04005839,0.9128817,-21.33854,6.972315,-62.84496,1008.903
5.397688389,0.0168297,-0.02907075,0.1025893,0.4159645,-0.04200402,0.9142928,-21.33854,6.972315,-62.84496,1008.903
5.402618408,0.07805371,-0.02907075,-0.01925619,0.4125508,-0.04152858,0.9095323,-21.33854,6.972315,-62.84496,1008.901
5.407548905,-0.1668424,-0.08905933,-0.1411017,0.4125719,-0.04443245,0.9099761,-21.33854,6.972315,-62.84496,1008.901
5.412478924,-0.04439433,0.03091782,-0.01925619,0.4159485,-0.0381496,0.9195867,-21.33854,6.972315,-62.84496,1008.901
5.419876099,0.2617258,-0.02907075,0.04166655,0.4154626,-0.04054752,0.911447,-22.02479,6.592311,-63.20399,1008.901
5.424804211,-0.04439433,-0.08905933,-0.1411017,0.4125728,-0.04299676,0.9152422,-22.02479,6.592311,-63.20399,1008.901
5.429734230,0.07805371,-0.08905933,-0.01925619,0.4135074,-0.03910628,0.9105129,-22.02479,6.592311,-63.20399,1008.901
5.434664726,-0.1056184,-0.1490479,0.04166655,0.4154473,-0.04004682,0.9057261,-22.02479,6.592311,-63.20399,1008.901
5.439594746,0.0168297,-0.1490479,0.1025893,0.4164484,-0.04343509,0.9085485,-22.02479,6.592311,-63.20399,1008.901
5.444524765,-0.2280664,0.03091782,0.1025893,0.4135691,-0.04542037,0.9190302,-22.02479,6.592311,-63.20399,1008.906
5.449455261,0.07805371,0.03091782,-0.08017892,0.4154664,-0.04151076,0.9100043,-22.02479,6.592311,-63.20399,1008.906
5.454385281,-0.04439433,0.150895,0.04166655,0.4135184,-0.03912182,0.9157622,-22.02479,6.592311,-63.20399,1008.906
5.459315300,0.07805371,0.0909064,0.04166655,0.4140193,-0.04057691,0.9181307,-22.02479,6.592311,-63.20399,1008.906
5.464245796,0.0168297,-0.02907075,-0.1411017,0.4164605,-0.04488914,0.9094862,-22.02479,6.592311,-63.20399,1008.906
5.469175816,0.07805371,-0.1490479,-0.01925619,0.4120365,-0.03813852,0.9071862,-22.04009,6.966544,-63.58454,1008.906
5.474105835,-0.04439433,-0.02907075,-0.01925619,0.419868,-0.04391899,0.9161723,-22.04009,6.966544,-63.58454,1008.906
5.479036331,-0.04439433,0.03091782,-0.01925619,0.4145052,-0.04201081,0.913341,-22.04009,6.966544,-63.58454,1008.906
5.483966351,-0.04439433,0.03091782,0.1025893,0.4159576,-0.04343123,0.9061633,-22.04009,6.966544,-63.58454,1008.906
5.488896370,-0.04439433,0.03091782,0.1025893,0.4145095,-0.04249596,0.9138126,-22.04009,6.966544,-63.58454,1008.906
5.493826866,0.0168297,-0.2690251,0.1025893,0.4164543,-0.04344356,0.9114118,-22.04009,6.966544,-63.58454,1008.906
5.498756886,-0.04439433,0.03091782,0.04166655,0.4130502,-0.04250275,0.9128608,-22.04009,6.966544,-63.58454,1008.906
5.503686905,0.0168297,0.03091782,0.04166655,0.4150175,-0.04539803,0.9147327,-22.04009,6.966544,-63.58454,1008.906
5.508617401,0.07805371,-0.1490479,0.04166655,0.4130314,-0.04008121,0.9119342,-22.04009,6.966544,-63.58454,1008.906
5.513547421,0.07805371,-0.2090365,0.04166655,0.415004,-0.04346307,0.914755,-22.04009,6.966544,-63.58454,1008.906
5.518477440,-0.1056184,-0.08905933,-0.01925619,0.4159752,-0.04297715,0.9161904,-21.35384,7.346548,-63.2255,1008.906
5.523407936,0.07805371,-0.02907075,0.163512,0.4149681,-0.03958041,0.9105047,-21.35384,7.346548,-63.2255,1008.906
5.528337956,-0.1056184,0.03091782,-0.08017892,0.4140017,-0.04103099,0.9081036,-21.35384,7.346548,-63.2255,1008.906
5.533267975,0.0168297,-0.08905933,0.04166655,0.4145323,-0.04492315,0.916648,-21.35384,7.346548,-63.2255,1008.906
5.538198471,-0.1056184,-0.08905933,-0.08017892,0.41547,-0.04103691,0.9133503,-21.35384,7.346548,-63.2255,1008.906
5.543128491,-0.04439433,-0.08905933,-0.01925619,0.4174282,-0.04391948,0.9109273,-21.35384,7.346548,-63.2255,1008.906
5.548058033,0.0168297,-0.02907075,-0.08017892,0.410621,-0.04203928,0.9143024,-21.35384,7.346548,-63.2255,1008.906
5.552991390,0.0168297,-0.02907075,0.04166655,0.4159733,-0.04441143,0.9104472,-21.35384,7.346548,-63.2255,1008.906
5.557919026,-0.1056184,0.03091782,0.04166655,0.4154983,-0.04538777,0.9123457,-21.35384,7.346548,-63.2255,1008.906
5.562848568,0.1392777,-0.08905933,0.04166655,0.4173938,-0.03812304,0.9138575,-21.35384,7.346548,-63.2255,1008.904
5.567779541,-0.04439433,-0.02907075,-0.1411017,0.4125704,-0.04251443,0.9157249,-21.34816,6.970423,-63.22124,1008.904
5.572709561,0.0168297,-0.02907075,-0.01925619,0.416429,-0.03909694,0.9138481,-21.34816,6.970423,-63.22124,1008.904
5.577639103,0.07805371,0.0909064,0.1025893,0.4125714,-0.04251584,0.9162021,-21.34816,6.970423,-63.22124,1008.904
5.582572460,0.0168297,-0.02907075,0.163512,0.4188753,-0.04102153,0.9157303,-21.34816,6.970423,-63.22124,1008.904
5.587500096,-0.04439433,-0.08905933,-0.01925619,0.4164325,-0.04101778,0.9090537,-21.34816,6.970423,-63.22124,1008.904
5.594891071,-0.04439433,0.2108836,-0.01925619,0.4125457,-0.04008441,0.9119351,-21.34816,6.970423,-63.22124,1008.904
5.599821091,-0.04439433,0.03091782,-0.01925619,0.4135245,-0.0405674,0.9138367,-21.34816,6.970423,-63.22124,1008.904
5.604751587,0.0168297,0.03091782,-0.01925619,0.4154438,-0.03812597,0.9105206,-21.34816,6.970423,-63.22124,1008.904
5.609681606,-0.1056184,0.03091782,-0.01925619,0.4135097,-0.03815151,0.914819,-21.34816,6.970423,-63.22124,1008.904
5.614611626,0.0168297,0.03091782,-0.01925619,0.4125574,-0.04105897,0.9143101,-21.35937,6.968216,-63.66023,1008.904
5.619542122,0.07805371,-0.02907075,0.1025893,0.4125473,-0.03960774,0.9143268,-21.35937,6.968216,-63.66023,1008.904
5.624472141,0.07805371,-0.08905933,-0.08017892,0.4140336,-0.04490799,0.9104451,-21.35937,6.968216,-63.66023,1008.904
5.629402161,-0.04439433,0.150895,-0.01925619,0.4135146,-0.04055328,0.9090645,-21.35937,6.968216,-63.66023,1008.904
5.634332180,-0.04439433,-0.08905933,0.04166655,0.414967,-0.03814189,0.9148164,-21.35937,6.968216,-63.66023,1008.904
5.639262676,0.0168297,-0.08905933,0.04166655,0.418402,-0.0429583,0.9152317,-21.35937,6.968216,-63.66023,1008.904
5.644192696,-0.04439433,-0.1490479,-0.1411017,0.4145223,-0.04490903,0.9118758,-21.35937,6.968216,-63.66023,1008.904
5.649122715,-0.1668424,-0.2090365,-0.01925619,0.4168747,-0.03616302,0.9043365,-21.35937,6.968216,-63.66023,1008.904
5.654053211,-0.04439433,-0.1490479,-0.01925619,0.4154823,-0.04153336,0.9176397,-21.35937,6.968216,-63.66023,1008.904
5.658983231,-0.1056184,0.0909064,0.04166655,0.4135259,-0.04104831,0.9128766,-21.35937,6.968216,-63.66023,1008.904
5.663913250,-0.04439433,-0.2090365,0.04166655,0.4154931,-0.0439436,0.9147485,-22.01518,6.594203,-62.82771,1008.904
5.668843746,-0.04439433,-0.08905933,-0.01925619,0.4203403,-0.04198081,0.9161937,-22.01518,6.594203,-62.82771,1008.904
5.673775196,-0.1668424,-0.02907075,-0.01925619,0.414965,-0.03813907,0.9138619,-22.01518,6.594203,-62.82771,1008.904
5.678704262,0.0168297,-0.02907075,0.04166655,0.415945,-0.04006056,0.9114518,-22.01518,6.594203,-62.82771,1008.904
5.683638096,0.0168297,-0.08905933,0.1025893,0.4125607,-0.04154271,0.9143045,-22.01518,6.594203,-62.82771,1008.906
5.688564301,-0.04439433,0.150895,0.04166655,0.4159611,-0.04152027,0.9142984,-22.01518,6.594203,-62.82771,1008.906
5.693494320,0.0168297,-0.08905933,-0.08017892,0.4159524,-0.04054996,0.9133551,-22.01518,6.594203,-62.82771,1008.906
5.698424816,0.0168297,-0.2690251,-0.08017892,0.4149898,-0.04056909,0.9176518,-22.01518,6.594203,-62.82771,1008.906
5.703355313,0.07805371,-0.08905933,-0.01925619,0.4154595,-0.03910617,0.9148043,-22.01518,6.594203,-62.82771,1008.906
5.708284855,-0.04439433,0.03091782,-0.01925619,0.4110896,-0.03913785,0.9157666,-22.01518,6.594203,-62.82771,1008.906
5.713215351,0.0168297,-0.1490479,-0.1411017,0.4145032,-0.04200798,0.9123865,-21.73723,7.343257,-63.65742,1008.906
5.718145847,0.07805371,0.03091782,0.04166655,0.4101089,-0.03769445,0.9162623,-21.73723,7.343257,-63.65742,1008.906
5.723075390,0.07805371,-0.08905933,-0.1411017,0.4101622,-0.04591243,0.9142587,-21.73723,7.343257,-63.65742,1008.906
5.728005886,-0.1056184,-0.08905933,0.04166655,0.4169571,-0.04490148,0.9147348,-21.73723,7.343257,-63.65742,1008.906
5.732935906,-0.04439433,0.0909064,-0.01925619,0.4179229,-0.04392898,0.9152215,-21.73723,7.343257,-63.65742,1008.906
5.737865925,-0.04439433,-0.1490479,-0.01925619,0.41647,-0.04442376,0.9156956,-21.73723,7.343257,-63.65742,1008.906
5.742796421,0.0168297,0.0909064,0.1025893,0.4130298,-0.04055789,0.9095426,-21.73723,7.343257,-63.65742,1008.906
5.747726441,-0.1056184,-0.08905933,-0.08017892,0.4149667,-0.03909949,0.9114647,-21.73723,7.343257,-63.65742,1008.906
5.752656460,-0.04439433,0.150895,0.163512,0.4164084,-0.03810967,0.9071783,-21.73723,7.343257,-63.65742,1008.906
5.757586956,0.07805371,-0.1490479,-0.08017892,0.4150097,-0.04442914,0.9142666,-21.73723,7.343257,-63.65742,1008.906
5.762516975,-0.1056184,-0.02907075,0.04166655,0.4140154,-0.04200836,0.9114329,-21.35937,6.968216,-63.66023,1008.906
5.769912243,-0.1056184,-0.08905933,0.04166655,0.4154521,-0.03861678,0.912901,-21.35937,6.968216,-63.66023,1008.91
5.774842262,-0.04439433,-0.2090365,-0.01925619,0.4188939,-0.04440067,0.9133052,-21.35937,6.968216,-63.66023,1008.91
5.779772758,0.0168297,-0.02907075,0.04166655,0.4120842,-0.04443284,0.9090225,-21.35937,6.968216,-63.66023,1008.91
5.784702778,-0.2280664,-0.02907075,0.04166655,0.4154636,-0.04054893,0.9119242,-21.35937,6.968216,-63.66023,1008.91
5.789632797,0.2005018,-0.08905933,-0.08017892,0.4126023,-0.04639144,0.9180664,-21.35937,6.968216,-63.66023,1008.91
5.794559002,0.07805371,-0.02907075,-0.01925619,0.4169209,-0.04053931,0.9119216,-21.35937,6.968216,-63.66023,1008.91
5.799489021,0.0168297,-0.02907075,0.04166655,0.416445,-0.04295135,0.9085541,-21.35937,6.968216,-63.66023,1008.91
5.804419041,0.07805371,0.03091782,0.04166655,0.4174453,-0.0453806,0.9142511,-21.35937,6.968216,-63.66023,1008.91
5.809349537,-0.04439433,-0.02907075,0.04166655,0.4159816,-0.04490223,0.9128276,-22.03048,6.968436,-63.20826,1008.91
5.814279556,0.1392777,-0.02907075,0.04166655,0.4115785,-0.04057598,0.9124085,-22.03048,6.968436,-63.20826,1008.91
5.819209576,0.07805371,-0.08905933,-0.01925619,0.4110925,-0.03914209,0.9171982,-22.03048,6.968436,-63.20826,1008.91
5.824140072,0.07805371,-0.08905933,0.04166655,0.4178816,-0.03812265,0.9148111,-22.03048,6.968436,-63.20826,1008.91
5.829070091,0.0168297,-0.02907075,0.04166655,0.4145196,-0.04394719,0.9137958,-22.03048,6.968436,-63.20826,1008.91
5.834000111,-0.04439433,0.03091782,-0.01925619,0.4159834,-0.04586266,0.9104304,-22.03048,6.968436,-63.20826,1008.91
5.838930607,0.07805371,-0.02907075,-0.01925619,0.4154905,-0.04441887,0.9118796,-22.03048,6.968436,-63.20826,1008.91
5.843860626,0.07805371,0.0909064,-0.08017892,0.4135415,-0.04442322,0.9090199,-22.03048,6.968436,-63.20826,1008.91
5.848790646,-0.04439433,0.03091782,-0.1411017,0.4174368,-0.04345269,0.9166595,-22.03048,6.968436,-63.20826,1008.91
5.853721142,-0.1056184,0.150895,-0.01925619,0.4159684,-0.04200967,0.9162016,-22.03048,6.968436,-63.20826,1008.91
5.858651161,-0.04439433,0.03091782,-0.01925619,0.4178934,-0.04053431,0.9123971,-22.02655,7.346453,-62.83625,1008.91
5.863581181,0.0168297,0.03091782,-0.08017892,0.4164514,-0.04343932,0.9099802,-22.02655,7.346453,-62.83625,1008.91
5.868511677,-0.1668424,0.150895,-0.01925619,0.4198609,-0.04247199,0.9176207,-22.02655,7.346453,-62.83625,1008.91
5.873441696,0.0168297,-0.1490479,-0.08017892,0.4179069,-0.04246928,0.9123748,-22.02655,7.346453,-62.83625,1008.91
5.878371716,-0.1668424,-0.02907075,-0.08017892,0.4169379,-0.04200042,0.9152455,-22.02655,7.346453,-62.83625,1008.91
5.883302212,0.07805371,0.2708721,-0.08017892,0.4164522,-0.04200363,0.9152464,-22.02655,7.346453,-62.83625,1008.91
5.888232231,0.07805371,-0.1490479,0.04166655,0.4135312,-0.04153489,0.9138255,-22.02655,7.346453,-62.83625,1008.911
5.893162250,-0.04439433,0.150895,-0.01925619,0.4154768,-0.03960969,0.9214797,-22.02655,7.346453,-62.83625,1008.911
5.898092270,0.0168297,-0.02907075,-0.01925619,0.4164256,-0.03861319,0.9138537,-22.02655,7.346453,-62.83625,1008.911
5.903022766,-0.04439433,0.2708721,-0.08017892,0.4120341,-0.0376562,0.9076689,-22.02655,7.346453,-62.83625,1008.911
5.907952785,0.1392777,0.2708721,0.04166655,0.4140311,-0.04298856,0.9157167,-21.73155,6.967132,-63.65315,1008.911
5.912882805,0.1392777,0.3308607,-0.01925619,0.4164435,-0.04103332,0.9143031,-21.73155,6.967132,-63.65315,1008.911
5.917813301,0.0168297,-0.02907075,-0.01925619,0.4164318,-0.04005877,0.9119281,-21.73155,6.967132,-63.65315,1008.911
5.922743320,-0.1056184,0.0909064,0.04166655,0.4145,-0.04056664,0.9157437,-21.73155,6.967132,-63.65315,1008.911
5.927673340,-0.04439433,-0.02907075,0.04166655,0.4081767,-0.04011751,0.9133747,-21.73155,6.967132,-63.65315,1008.911
5.932603836,0.07805371,0.03091782,-0.01925619,0.4183829,-0.04149435,0.9109535,-21.73155,6.967132,-63.65315,1008.911
5.937533855,-0.04439433,-0.02907075,-0.2020244,0.4125833,-0.0449275,0.9137882,-21.73155,6.967132,-63.65315,1008.911
5.942463875,0.0168297,0.150895,-0.01925619,0.412054,-0.03768445,0.9172132,-21.73155,6.967132,-63.65315,1008.911
5.949859142,-0.1056184,0.0909064,0.04166655,0.4135441,-0.04394795,0.9118887,-21.73155,6.967132,-63.65315,1008.911
5.954789639,0.0168297,0.03091782,-0.1411017,0.4159501,-0.04150473,0.909049,-21.73155,6.967132,-63.65315,1008.911
5.959719658,0.07805371,0.0909064,-0.08017892,0.4130294,-0.04007839,0.9109798,-21.73155,6.967132,-63.65315,1008.911
5.964649677,0.0168297,0.03091782,0.1025893,0.4106044,-0.04105766,0.9095414,-21.73155,6.967132,-63.65315,1008.911
5.969580173,0.07805371,-0.02907075,-0.2629471,0.4174171,-0.04246683,0.9104668,-21.73155,6.967132,-63.65315,1008.911
5.974510193,-0.1668424,0.150895,0.1025893,0.4149866,-0.04152244,0.9128684,-21.73155,6.967132,-63.65315,1008.911
5.979440212,-0.04439433,0.2108836,0.1025893,0.4140204,-0.04201543,0.913819,-21.73155,6.967132,-63.65315,1008.911
5.984370708,-0.1668424,-0.08905933,-0.08017892,0.4145309,-0.04444223,0.917608,-21.73155,6.967132,-63.65315,1008.911
5.989300728,-0.1668424,-0.02907075,-0.2020244,0.4140037,-0.04103381,0.9090581,-21.73155,6.967132,-63.65315,1008.911
5.994226456,-0.1668424,-0.02907075,0.04166655,0.4183818,-0.04005583,0.9152651,-21.73155,6.967132,-63.65315,1008.911
5.999157429,-0.04439433,-0.02907075,0.04166655,0.4183953,-0.04199081,0.9152429,-21.73155,6.967132,-63.65315,1008.911
6.004086971,-0.1056184,-0.1490479,0.04166655,0.4150085,-0.04538532,0.9104378,-22.04738,7.342353,-63.65153,1008.911
6.009016991,-0.04439433,-0.1490479,-0.08017892,0.4149988,-0.0444136,0.9090173,-22.04738,7.342353,-63.65153,1008.915
6.013947487,0.0168297,0.0909064,-0.1411017,0.414988,-0.04200336,0.9119084,-22.04738,7.342353,-63.65153,1008.915
6.018877506,0.0168297,0.0909064,-0.08017892,0.4130562,-0.04251122,0.915724,-22.04738,7.342353,-63.65153,1008.915
6.023807526,0.0168297,-0.02907075,0.04166655,0.4169284,-0.04246581,0.9090361,-22.04738,7.342353,-63.65153,1008.915
6.028738022,0.07805371,0.150895,-0.01925619,0.4174224,-0.0415163,0.9162045,-22.04738,7.342353,-63.65153,1008.915
6.033668041,0.0168297,-0.02907075,0.04166655,0.4145153,-0.04346203,0.9133242,-22.04738,7.342353,-63.65153,1008.915
6.038598061,-0.04439433,-0.1490479,-0.08017892,0.4130304,-0.0400798,0.911457,-22.04738,7.342353,-63.65153,1008.915
6.043528557,0.2005018,0.03091782,-0.01925619,0.4174497,-0.04586575,0.9147227,-22.04738,7.342353,-63.65153,1008.915
6.048458576,-0.04439433,-0.1490479,0.1025893,0.4159824,-0.04586124,0.9099532,-22.04738,7.342353,-63.65153,1008.917
6.053388596,0.07805371,0.0909064,0.04166655,0.4130439,-0.04201477,0.9114347,-21.36898,6.966324,-64.03651,1008.917
6.058319092,0.0168297,-0.1490479,-0.01925619,0.4135269,-0.04104973,0.9133539,-21.36898,6.966324,-64.03651,1008.917
6.063249111,0.07805371,-0.1490479,0.1025893,0.4125349,-0.03911128,0.9100375,-21.36898,6.966324,-64.03651,1008.917
6.068179131,-0.1056184,-0.08905933,0.04166655,0.4130265,-0.04007415,0.9095482,-21.36898,6.966324,-64.03651,1008.917
6.073109627,-0.1056184,-0.02907075,0.1025893,0.4178934,-0.04053431,0.9123971,-21.36898,6.966324,-64.03651,1008.917
6.078042507,0.07805371,0.03091782,-0.08017892,0.4183798,-0.04005301,0.9143107,-21.36898,6.966324,-64.03651,1008.917
6.082969666,-0.04439433,-0.1490479,0.04166655,0.4159785,-0.04346089,0.9161848,-21.36898,6.966324,-64.03651,1008.917
6.087900162,0.0168297,-0.2090365,-0.08017892,0.4121076,-0.04638194,0.9137723,-21.36898,6.966324,-64.03651,1008.917
6.092830181,0.07805371,-0.02907075,-0.01925619,0.413539,-0.04250378,0.9142916,-21.36898,6.966324,-64.03651,1008.915
6.097760201,-0.04439433,0.150895,-0.01925619,0.4139972,-0.03910873,0.9124209,-21.36898,6.966324,-64.03651,1008.915
6.102690697,0.0168297,-0.2090365,0.04166655,0.4134987,-0.03813597,0.9095696,-21.72033,6.969339,-63.21416,1008.915
6.107620716,-0.1056184,-0.1490479,0.04166655,0.4130203,-0.03862857,0.9114738,-21.72033,6.969339,-63.21416,1008.915
6.112550735,0.07805371,-0.1490479,0.04166655,0.4144875,-0.04102778,0.9081028,-21.72033,6.969339,-63.21416,1008.915
6.117481232,-0.1056184,-0.08905933,0.04166655,0.4140027,-0.0410324,0.9085808,-21.72033,6.969339,-63.21416,1008.915
6.122411251,0.07805371,-0.1490479,0.163512,0.4106115,-0.04010995,0.9162335,-21.72033,6.969339,-63.21416,1008.915
6.129806519,-0.1056184,-0.02907075,0.04166655,0.4159601,-0.04151886,0.9138211,-21.72033,6.969339,-63.21416,1008.915
6.134736538,0.0168297,-0.02907075,0.04166655,0.4125946,-0.04542254,0.9176003,-21.72033,6.969339,-63.21416,1008.915
6.139667034,-0.04439433,-0.02907075,0.163512,0.4159541,-0.04151038,0.9109578,-21.72033,6.969339,-63.21416,1008.915
6.144597054,-0.1056184,-0.08905933,0.163512,0.4169549,-0.04585624,0.9104287,-21.72033,6.969339,-63.21416,1008.915
6.149527073,-0.1056184,-0.02907075,-0.08017892,0.4149869,-0.04200195,0.9114312,-21.72033,6.969339,-63.21416,1008.915
6.154457092,-0.1056184,-0.08905933,0.04166655,0.4140275,-0.04346241,0.9123707,-21.72033,6.969339,-63.21416,1008.915
6.159387589,0.0168297,-0.02907075,0.1025893,0.410618,-0.04203504,0.9128707,-21.72033,6.969339,-63.21416,1008.915
6.164317608,-0.1056184,-0.08905933,0.1025893,0.4174307,-0.04200711,0.9185851,-21.72033,6.969339,-63.21416,1008.915
6.169248104,-0.1056184,-0.08905933,0.04166655,0.4154743,-0.04152206,0.913822,-21.72033,6.969339,-63.21416,1008.915
6.174178124,-0.1056184,-0.1490479,0.04166655,0.4145065,-0.04249172,0.9123809,-21.72033,6.969339,-63.21416,1008.915
6.179108143,0.0168297,-0.02907075,0.1025893,0.4179125,-0.04199825,0.9166753,-21.72033,6.969339,-63.21416,1008.915
6.184038162,-0.1056184,-0.02907075,-0.2020244,0.4159454,-0.04054007,0.9100146,-21.72033,6.969339,-63.21416,1008.915
6.188968658,0.0168297,-0.08905933,0.163512,0.4135227,-0.04200168,0.9080933,-21.72033,6.969339,-63.21416,1008.915
6.193895340,-0.1056184,-0.2090365,0.04166655,0.41741,-0.04101985,0.9119152,-21.72033,6.969339,-63.21416,1008.915
6.198825359,-0.04439433,-0.08905933,0.04166655,0.4144756,-0.03861613,0.9105167,-22.03048,6.968436,-63.20826,1008.915
6.203755379,-0.1668424,-0.1490479,-0.08017892,0.4130374,-0.04008969,0.9147975,-22.03048,6.968436,-63.20826,1008.915
6.208684921,0.1392777,-0.08905933,-0.01925619,0.4111058,-0.04203466,0.9138243,-22.03048,6.968436,-63.20826,1008.915
6.213614941,0.0168297,-0.2090365,0.04166655,0.4096384,-0.04059305,0.9138436,-22.03048,6.968436,-63.20826,1008.918
6.218545914,0.07805371,-0.02907075,0.04166655,0.4140097,-0.04104229,0.9119213,-22.03048,6.968436,-63.20826,1008.918
6.223477840,0.0168297,-0.2090365,-0.01925619,0.4150242,-0.04636552,0.9147215,-22.03048,6.968436,-63.20826,1008.918
6.228405476,-0.04439433,-0.02907075,0.04166655,0.4164658,-0.0453757,0.9104351,-22.03048,6.968436,-63.20826,1008.918
6.233336449,-0.04439433,-0.2090365,0.1025893,0.4135228,-0.03960698,0.9162338,-22.03048,6.968436,-63.20826,1008.918
6.238265991,-0.1056184,0.03091782,0.1025893,0.4135472,-0.04538929,0.9085315,-22.03048,6.968436,-63.20826,1008.918
6.243196011,-0.04439433,-0.08905933,-0.01925619,0.4154996,-0.04586869,0.9113857,-22.03048,6.968436,-63.20826,1008.918
6.248126984,0.07805371,0.03091782,0.04166655,0.4169407,-0.04296226,0.9133254,-21.72586,6.591007,-63.64889,1008.918
6.253057480,-0.04439433,-0.1490479,-0.01925619,0.4164472,-0.04199657,0.9128602,-21.72586,6.591007,-63.64889,1008.916
6.257986546,0.0168297,-0.1490479,-0.1411017,0.4139885,-0.03813842,0.9114776,-21.72586,6.591007,-63.64889,1008.916
6.262917519,0.0168297,-0.08905933,0.04166655,0.4159773,-0.04441708,0.912356,-21.72586,6.591007,-63.64889,1008.916
6.267847061,-0.04439433,-0.3290136,0.1025893,0.4140469,-0.04540586,0.9152117,-21.72586,6.591007,-63.64889,1008.916
6.272777081,-0.1056184,-0.1490479,0.04166655,0.4179116,-0.04343394,0.9114092,-21.72586,6.591007,-63.64889,1008.916
6.277707577,-0.2280664,-0.08905933,0.04166655,0.4125631,-0.04202504,0.9138216,-21.72586,6.591007,-63.64889,1008.916
6.282637596,0.0168297,0.03091782,0.04166655,0.414019,-0.04153451,0.9147791,-21.72586,6.591007,-63.64889,1008.916
6.287567616,0.0168297,0.0909064,0.1025893,0.4183907,-0.04246325,0.9114195,-21.72586,6.591007,-63.64889,1008.916
6.292498112,-0.04439433,-0.1490479,0.1025893,0.4159511,-0.04150615,0.9095262,-21.72586,6.591007,-63.64889,1008.916
6.297428131,-0.04439433,-0.02907075,-0.08017892,0.4150074,-0.04394681,0.9147494,-21.72018,6.214882,-63.64462,1008.916
6.304823399,-0.1056184,-0.1490479,0.1025893,0.41696,-0.04730041,0.9080259,-21.72018,6.214882,-63.64462,1008.916
6.309753418,-0.04439433,-0.08905933,0.04166655,0.4135195,-0.04056034,0.9114506,-21.72018,6.214882,-63.64462,1008.916
6.314683914,-0.04439433,-0.02907075,0.04166655,0.4130313,-0.03864411,0.9167231,-21.72018,6.214882,-63.64462,1008.916
6.319613934,0.1392777,-0.08905933,0.04166655,0.4135336,-0.04201722,0.9133427,-21.72018,6.214882,-63.64462,1008.916
6.324543953,-0.1056184,0.03091782,-0.1411017,0.4106305,-0.0439686,0.9123712,-21.72018,6.214882,-63.64462,1008.916
6.329474449,0.0168297,0.0909064,-0.01925619,0.4125707,-0.04155684,0.9190766,-21.72018,6.214882,-63.64462,1008.916
6.334404469,-0.04439433,0.03091782,-0.01925619,0.4169076,-0.04004144,0.9071551,-21.72018,6.214882,-63.64462,1008.914
6.339334488,-0.1056184,-0.1490479,-0.08017892,0.4169397,-0.04296085,0.9128482,-21.72018,6.214882,-63.64462,1008.914
6.344264984,0.07805371,0.03091782,0.1025893,0.4145106,-0.04393448,0.9095009,-21.72018,6.214882,-63.64462,1008.914
6.349195004,0.0168297,-0.02907075,-0.01925619,0.418858,-0.04051801,0.9090549,-21.7164,7.347356,-62.84215,1008.914
6.354125023,0.07805371,0.0909064,0.1025893,0.4169098,-0.03908667,0.9114612,-21.7164,7.347356,-62.84215,1008.914
6.359055519,-0.04439433,-0.08905933,-0.01925619,0.4149942,-0.04105423,0.9181234,-21.7164,7.347356,-62.84215,1008.914
6.363985539,0.0168297,-0.02907075,0.163512,0.4149564,-0.03860586,0.9081298,-21.7164,7.347356,-62.84215,1008.914
6.368915558,0.07805371,0.03091782,0.04166655,0.4111046,-0.04299084,0.9099954,-21.7164,7.347356,-62.84215,1008.914
6.373846054,0.0168297,-0.02907075,0.04166655,0.420331,-0.0414886,0.913336,-21.7164,7.347356,-62.84215,1008.914
6.378776074,-0.1056184,0.03091782,0.04166655,0.4111179,-0.04348871,0.914762,-21.7164,7.347356,-62.84215,1008.914
6.383706093,0.0168297,0.0909064,-0.08017892,0.4174457,-0.0458601,0.9128138,-21.7164,7.347356,-62.84215,1008.914
6.388636589,0.07805371,-0.08905933,0.1025893,0.4140244,-0.04202107,0.9157279,-21.7164,7.347356,-62.84215,1008.914
6.393562794,0.0168297,-0.2090365,0.04166655,0.4159726,-0.04345242,0.9133216,-21.71465,6.593214,-63.20989,1008.914
