Time (s),Gyroscope X (deg/s),Gyroscope Y (deg/s),Gyroscope Z (deg/s),Accelerometer X (g),Accelerometer Y (g),Accelerometer Z (g),Magnetometer X (uT),Magnetometer Y (uT),Magnetometer Z (uT),Barometer (hPa)
0.001100540,-1.487314,0.2650009,-0.2647556,0.04681971,0.9646969,-0.2197578,-8.855556,-36.34623,-6.8628,1008.076
0.006124973,-1.363794,0.5058023,-0.3868864,0.04577043,0.9719769,-0.2153543,-8.855556,-36.34623,-6.8628,1008.076
0.011149883,-1.487314,0.6864034,-0.325821,0.0453508,0.9661373,-0.217823,-8.855556,-36.34623,-6.8628,1008.076
0.016174316,-1.857875,0.626203,-0.325821,0.04971604,0.9656752,-0.2173525,-8.855556,-36.34623,-6.8628,1008.074
0.021199703,-1.796114,0.6864034,-0.325821,0.04825015,0.966674,-0.2221279,-8.855556,-36.34623,-6.8628,1008.074
0.026223183,-1.734354,0.7466037,-0.4479518,0.04733443,0.9622053,-0.2116485,-8.855556,-36.34623,-6.8628,1008.074
0.031247616,-1.796114,0.7466037,-0.4479518,0.04635277,0.9632107,-0.216903,-8.855556,-36.34623,-6.8628,1008.074
0.036272526,-1.240274,0.8068041,-0.325821,0.04490382,0.9627365,-0.2202605,-8.855556,-36.34623,-6.8628,1008.074
0.041296959,-1.240274,0.9874052,-0.5090172,0.0487303,0.9671418,-0.21877,-8.855556,-36.34623,-6.8628,1008.074
0.046321392,-0.9932337,1.168006,-0.5700825,0.0452922,0.9714728,-0.2134448,-9.971563,-35.98721,-7.257693,1008.074
0.051341534,-0.9932337,0.9272048,-0.5090172,0.04727251,0.9676035,-0.2163687,-9.971563,-35.98721,-7.257693,1008.074
0.056365967,-1.054994,1.408808,-0.6922134,0.0462873,0.9690604,-0.2163496,-9.971563,-35.98721,-7.257693,1008.074
0.061390877,-1.363794,1.348607,-0.631148,0.05069875,0.9646499,-0.2092248,-9.971563,-35.98721,-7.257693,1008.074
0.134246349,-2.043155,1.168006,-0.4479518,0.04580837,0.9685693,-0.2163555,-9.602667,-35.98288,-6.41116,1008.08
0.139270783,-2.228435,1.168006,-0.4479518,0.04482014,0.9704677,-0.2096261,-9.602667,-35.98288,-6.41116,1008.08
0.141782761,-2.290195,1.168006,-0.3868864,0.050664,0.9676127,-0.214455,-9.602667,-35.98288,-6.41116,1008.08
0.146807671,-2.166675,0.626203,-0.2647556,0.04103637,0.9621802,-0.2140396,-9.603439,-35.61364,-7.254607,1008.08
0.151832104,-2.104915,0.8068041,-0.2036902,0.04154091,0.9602655,-0.2188533,-9.603439,-35.61364,-7.254607,1008.08
0.156857014,-1.796114,0.5058023,0.1016368,0.0415132,0.9627108,-0.21978,-9.603439,-35.61364,-7.254607,1008.08
0.161881447,-1.487314,0.1446002,0.4069638,0.0459222,0.9583467,-0.2193593,-9.603439,-35.61364,-7.254607,1008.08
0.166905403,-1.302034,-0.09620129,0.4069638,0.03421154,0.9660275,-0.2125499,-9.603439,-35.61364,-7.254607,1008.08
0.171929836,-1.425554,-0.5176038,0.59016,0.04104819,0.9611883,-0.2116577,-9.603439,-35.61364,-7.254607,1008.08
0.176954746,-1.734354,-0.8186056,0.7122907,0.0405227,0.9646521,-0.2192757,-9.603439,-35.61364,-7.254607,1008.08
0.181979179,-1.610834,-0.878806,0.8344215,0.03992674,0.9748287,-0.2100466,-9.603439,-35.61364,-7.254607,1008.082
0.187004089,-1.610834,-1.480809,0.8344215,0.039034,0.9680038,-0.2115697,-9.603439,-35.61364,-7.254607,1008.082
0.192028046,-1.610834,-1.420609,0.6512253,0.03852225,0.9704393,-0.2115384,-9.603439,-35.61364,-7.254607,1008.082
0.197052479,-1.796114,-1.661411,0.8954869,0.04094128,0.9705114,-0.2196802,-9.597063,-36.35369,-7.256669,1008.082
0.202077389,-1.919635,-1.842012,0.59016,0.04768754,0.9739143,-0.2114995,-9.597063,-36.35369,-7.256669,1008.082
0.207101822,-1.981395,-2.022613,0.59016,0.04825295,0.9666212,-0.2144662,-9.597063,-36.35369,-7.256669,1008.082
0.279957295,-1.796114,-0.878806,0.7733561,0.04671787,0.9739245,-0.2138933,-8.479946,-36.71307,-7.251534,1008.082
0.282465458,-1.672594,-0.9992067,0.7122907,0.04428121,0.9753386,-0.2090849,-8.479946,-36.71307,-7.251534,1008.082
0.287489891,-1.796114,-0.9390063,1.078683,0.04581716,0.9680189,-0.2072634,-8.479946,-36.71307,-7.251534,1008.082
0.292514801,-1.857875,-0.8186056,0.9565524,0.04584067,0.9656528,-0.2178294,-9.595762,-36.35411,-7.711388,1008.082
0.297539234,-1.981395,-0.6982049,1.017618,0.04824113,0.9676132,-0.2168481,-9.595762,-36.35411,-7.711388,1008.082
0.302563667,-1.919635,-0.3972031,0.8954869,0.04580977,0.9685429,-0.2125247,-9.595762,-36.35411,-7.711388,1008.082
0.307587624,-1.981395,-0.3370027,0.8344215,0.04871634,0.9685588,-0.2120473,-9.595762,-36.35411,-7.711388,1008.082
0.312612534,-1.734354,-0.3370027,0.7122907,0.05018065,0.9675897,-0.2115816,-9.595762,-36.35411,-7.711388,1008.082
0.317636967,-1.796114,-0.216602,0.7122907,0.05016389,0.9690595,-0.2125206,-9.595762,-36.35411,-7.711388,1008.082
0.322661877,-1.857875,0.02419943,0.6512253,0.05211789,0.9676091,-0.2125403,-9.595762,-36.35411,-7.711388,1008.082
0.327686310,-1.857875,0.5058023,0.4680291,0.04587577,0.9626835,-0.2116416,-9.595762,-36.35411,-7.711388,1008.082
0.332710743,-2.043155,0.626203,0.284833,0.05209723,0.9695369,-0.2091634,-9.595762,-36.35411,-7.711388,1008.082
0.337734699,-1.857875,0.8068041,0.284833,0.04825033,0.9666708,-0.2216491,-9.595762,-36.35411,-7.711388,1008.082
0.342759609,-1.672594,0.9874052,0.04057138,0.04625587,0.9719604,-0.2124814,-9.600252,-35.98367,-7.255638,1008.086
0.347784042,-1.302034,1.168006,-0.02049401,0.04686172,0.9608281,-0.2245961,-9.600252,-35.98367,-7.255638,1008.086
0.352808952,-0.9314737,1.348607,-0.02049401,0.04728275,0.9666412,-0.2182966,-9.600252,-35.98367,-7.255638,1008.086
0.423151493,0.9213276,0.626203,-0.5090172,0.03614559,0.9664917,-0.2072772,-8.854443,-36.34659,-7.252559,1008.088
0.428176403,1.106608,0.5660027,-0.631148,0.03424472,0.9630944,-0.2116295,-8.854443,-36.34659,-7.252559,1008.088
0.433200836,1.044848,0.445602,-0.631148,0.03129508,0.9669672,-0.2101416,-8.854443,-36.34659,-7.252559,1008.088
0.435712814,1.230128,0.5058023,-0.6922134,0.03563669,0.9684889,-0.214435,-8.854443,-36.34659,-7.252559,1008.088
0.440737724,1.044848,0.3252012,-0.631148,0.03473406,0.9626198,-0.2130725,-9.594461,-36.35454,-8.166106,1008.088
0.445762158,1.106608,0.2048005,-0.8143441,0.03765105,0.9616701,-0.2140441,-9.594461,-36.35454,-8.166106,1008.088
0.450787068,1.168368,0.08439979,-0.8754095,0.0352017,0.9640929,-0.2140118,-9.594461,-36.35454,-8.166106,1008.088
0.455811501,1.291888,0.1446002,-0.8754095,0.03427399,0.9606194,-0.2063931,-9.594461,-36.35454,-8.166106,1008.088
0.460835457,1.230128,0.08439979,-0.8754095,0.03470281,0.9655165,-0.2087255,-9.594461,-36.35454,-8.166106,1008.088
0.465859890,1.538928,-0.1564016,-0.8143441,0.03811321,0.9636309,-0.2149772,-9.594461,-36.35454,-8.166106,1008.09
0.470884800,1.600688,-0.216602,-1.119671,0.03998534,0.9694932,-0.2144247,-9.594461,-36.35454,-8.166106,1008.09
0.475909233,2.033009,-0.216602,-0.8754095,0.03756846,0.9689961,-0.2153874,-9.594461,-36.35454,-8.166106,1008.09
0.480929852,2.033009,-0.3972031,-0.9975403,0.03905588,0.9660529,-0.2115946,-9.594461,-36.35454,-8.166106,1008.09
0.485954762,1.971248,-0.4574034,-0.9975403,0.04246291,0.9646153,-0.2120938,-9.594461,-36.35454,-8.166106,1008.09
0.490978718,2.094769,-0.3972031,-1.119671,0.03906135,0.9655651,-0.2116008,-9.222567,-36.72016,-7.255645,1008.09
0.573883534,1.847728,-1.360409,-0.1426248,0.05310962,0.9656448,-0.2096925,-9.228943,-35.98012,-7.253583,1008.088
0.576395512,1.847728,-1.360409,-0.2036902,0.05209776,0.969527,-0.2077268,-9.228943,-35.98012,-7.253583,1008.088
0.581419945,1.724208,-1.300208,0.04057138,0.0540516,0.9680799,-0.2082253,-9.228943,-35.98012,-7.253583,1008.088
0.586444378,1.600688,-1.240008,-0.0815594,0.05455136,0.9666398,-0.2111174,-9.604553,-35.61328,-6.864848,1008.088
0.591469288,1.600688,-1.059407,0.1016368,0.05451446,0.9700275,-0.207243,-9.604553,-35.61328,-6.864848,1008.088
0.596493721,1.353648,-0.7584053,-0.2036902,0.05694035,0.9695854,-0.2115601,-9.604553,-35.61328,-6.864848,1008.088
0.601518631,1.044848,-0.6380045,-0.1426248,0.05938069,0.9681019,-0.2063126,-9.604553,-35.61328,-6.864848,1008.088
0.606542587,1.168368,-0.3972031,-0.3868864,0.05690823,0.9724987,-0.2096074,-9.604553,-35.61328,-6.864848,1008.088
0.611567021,1.168368,-0.1564016,-0.5090172,0.06084308,0.967169,-0.2111143,-9.604553,-35.61328,-6.864848,1008.088
0.616591931,0.8595675,0.445602,-0.631148,0.06039133,0.9642428,-0.2116303,-9.604553,-35.61328,-6.864848,1008.088
0.621616364,0.6742874,0.6864034,-0.8754095,0.06089249,0.9627761,-0.2106915,-9.604553,-35.61328,-6.864848,1008.088
0.626640797,0.6125274,1.107806,-0.8143441,0.059374,0.9686127,-0.2096584,-9.604553,-35.61328,-6.864848,1008.088
0.631664753,0.6742874,1.77001,-0.9364749,0.06038394,0.9647667,-0.2168915,-9.604553,-35.61328,-6.864848,1008.088
0.636689663,0.8595675,2.010811,-0.9975403,0.0555528,0.9637229,-0.211634,-8.857632,-35.97657,-7.251528,1008.088
0.641714096,1.044848,1.890411,-0.9364749,0.05691108,0.9720604,-0.2167965,-8.857632,-35.97657,-7.251528,1008.088
0.646739006,1.168368,1.890411,-1.241802,0.0539881,0.9735078,-0.2172552,-8.857632,-35.97657,-7.251528,1008.088
0.757277966,1.230128,0.3854016,0.3458984,0.05517313,0.955207,-0.1796559,-9.595762,-36.35411,-7.711388,1008.091
0.762298584,1.662448,0.626203,0.6512253,0.05466987,0.9567133,-0.186341,-9.595762,-36.35411,-7.711388,1008.091
0.767323494,1.847728,1.168006,0.7733561,0.05367972,0.9586479,-0.1848791,-9.595762,-36.35411,-7.711388,1008.091
0.772347927,1.909488,1.348607,1.078683,0.05125894,0.9586088,-0.1815258,-9.595762,-36.35411,-7.711388,1008.091
0.777373314,1.847728,1.70981,1.017618,0.04880837,0.9610546,-0.1848455,-9.595762,-36.35411,-7.711388,1008.091
0.782396793,2.033009,1.348607,1.38401,0.04398661,0.9590651,-0.1839102,-9.595762,-36.35411,-7.711388,1008.091
0.787421226,1.847728,1.348607,1.506141,0.04196998,0.9659269,-0.1905262,-9.23213,-35.61009,-7.252552,1008.091
0.792445660,2.094769,1.107806,1.872533,0.03716481,0.9624708,-0.1891307,-9.23213,-35.61009,-7.252552,1008.091
0.797470570,1.847728,0.8068041,1.689337,0.03125093,0.9712612,-0.1961988,-9.23213,-35.61009,-7.252552,1008.091
0.802494526,1.724208,0.3854016,1.750403,0.02886425,0.967887,-0.2043817,-9.23213,-35.61009,-7.252552,1008.091
0.807518959,1.230128,-0.03600093,1.811468,0.0259266,0.9707646,-0.2000332,-9.23213,-35.61009,-7.252552,1008.091
0.812543869,1.044848,-0.3972031,1.872533,0.02782573,0.9741949,-0.2004695,-9.23213,-35.61009,-7.252552,1008.091
0.817568302,0.5507673,-0.5778042,1.689337,0.02590087,0.9727882,-0.2105432,-9.23213,-35.61009,-7.252552,1008.091
0.822593212,0.180207,-0.878806,1.750403,0.03409806,0.9762436,-0.2085884,-9.23213,-35.61009,-7.252552,1008.091
0.827617645,-0.005073093,-1.119607,1.628272,0.03368286,0.9699361,-0.2139364,-9.23213,-35.61009,-7.252552,1008.091
0.832641602,-0.1285932,-1.240008,1.567206,0.03790008,0.982264,-0.2291067,-10.34287,-35.99076,-7.259749,1008.091
0.938157082,-1.487314,-1.059407,0.1627022,0.03390518,0.9503605,-0.204608,-9.59499,-36.72335,-6.867941,1008.092
0.943181515,-1.302034,-1.240008,0.1016368,0.0373491,0.9455352,-0.2089816,-9.59499,-36.72335,-6.867941,1008.092
0.945693493,-0.8079537,-1.300208,0.2237676,0.04028018,0.9435507,-0.2013462,-9.59499,-36.72335,-6.867941,1008.092
0.950717926,-0.2521133,-1.179808,-0.0815594,0.04651259,0.9494287,-0.1988805,-9.59499,-36.72335,-6.867941,1008.092
0.955742836,0.118447,-0.9390063,-0.1426248,0.0513084,0.9538305,-0.1959538,-9.59499,-36.72335,-6.867941,1008.094
0.960762501,0.4272472,-0.6982049,-0.2647556,0.05375898,0.9513847,-0.1926341,-9.59499,-36.72335,-6.867941,1008.094
0.965787411,0.7978075,-0.216602,-0.3868864,0.05368607,0.9581437,-0.182491,-9.59499,-36.72335,-6.867941,1008.094
0.970811844,1.353648,0.445602,-0.3868864,0.05123793,0.9605433,-0.1791067,-9.59499,-36.72335,-6.867941,1008.094
0.975836754,1.353648,0.8068041,-0.4479518,0.05401251,0.9722782,-0.1803955,-9.59499,-36.72335,-6.867941,1008.094
0.980861187,1.538928,1.348607,-0.5700825,0.05014721,0.9712968,-0.1832791,-9.595762,-36.35411,-7.711388,1008.094
0.985886097,1.353648,1.890411,-0.6922134,0.05289496,0.9854605,-0.1831003,-9.595762,-36.35411,-7.711388,1008.094
0.990910053,1.477168,1.890411,-0.5700825,0.04479345,0.9732786,-0.1928287,-9.595762,-36.35411,-7.711388,1008.094
0.995934486,1.600688,1.77001,-0.4479518,0.0452904,0.9718912,-0.2033826,-9.595762,-36.35411,-7.711388,1008.094
1.000958920,1.847728,1.70981,-0.325821,0.03169778,0.9742799,-0.2090909,-9.595762,-36.35411,-7.711388,1008.094
1.005983829,2.094769,1.288407,-0.5700825,0.02883357,0.9703885,-0.2134489,-9.595762,-36.35411,-7.711388,1008.094
1.114010811,0.3654872,-0.2768023,-0.325821,0.03752785,0.9728385,-0.2067182,-9.970263,-35.98764,-7.712412,1008.094
1.116522789,0.4272472,-0.3370027,-0.2036902,0.03899076,0.9718959,-0.2100834,-9.970263,-35.98764,-7.712412,1008.099
1.121547699,0.3037271,-0.3370027,-0.2647556,0.04533241,0.9680222,-0.2082209,-9.970263,-35.98764,-7.712412,1008.099
1.126572132,0.2419671,-0.6982049,-0.325821,0.04095234,0.969918,-0.2043629,-9.970263,-35.98764,-7.712412,1008.099
1.131597042,0.3654872,-0.3972031,-0.3868864,0.04483178,0.969479,-0.2077231,-8.860819,-35.60654,-7.250497,1008.099
1.136620998,0.3037271,-0.6380045,-0.325821,0.03947674,0.9718693,-0.2057739,-8.860819,-35.60654,-7.250497,1008.099
1.141645432,0.2419671,-0.6380045,-0.4479518,0.04527381,0.9733577,-0.2038428,-8.860819,-35.60654,-7.250497,1008.099
1.146670342,0.05668695,-0.7584053,-0.5090172,0.04774027,0.9694586,-0.2019783,-8.860819,-35.60654,-7.250497,1008.099
1.151694775,0.118447,-1.179808,-0.4479518,0.04866601,0.9733537,-0.2000136,-8.860819,-35.60654,-7.250497,1008.099
1.156719208,-0.06683315,-0.7584053,-0.4479518,0.04432883,0.9713641,-0.1985997,-8.860819,-35.60654,-7.250497,1008.099
1.161739349,-0.005073093,-0.878806,-0.6922134,0.04913912,0.974339,-0.2009591,-8.860819,-35.60654,-7.250497,1008.099
1.166763783,-0.2521133,-0.6982049,-0.7532787,0.04575449,0.9738157,-0.1990482,-8.860819,-35.60654,-7.250497,1008.099
1.171788693,-0.4373934,-0.5778042,-0.8143441,0.04657931,0.9865363,-0.2036756,-8.860819,-35.60654,-7.250497,1008.099
1.176813126,-0.8079537,-0.2768023,-0.9975403,0.05062991,0.9709476,-0.2029188,-9.224453,-36.35056,-7.709332,1008.099
1.181838036,-0.8697137,-0.216602,-0.9364749,0.04621526,0.9758028,-0.2038122,-9.224453,-36.35056,-7.709332,1008.099
1.186862469,-0.8079537,-0.2768023,-0.9364749,0.05254703,0.972885,-0.1990641,-9.224453,-36.35056,-7.709332,1008.099
1.294888973,2.218288,-1.179808,0.7122907,0.04387944,0.967624,-0.2225922,-9.228943,-35.98012,-7.253583,1008.095
1.299913883,2.403569,-1.059407,0.5290945,0.04297187,0.9622326,-0.2197869,-9.228943,-35.98012,-7.253583,1008.095
1.302425861,2.527089,-0.9390063,0.7122907,0.04055552,0.9617257,-0.2193131,-9.228943,-35.98012,-7.253583,1008.095
1.307450295,2.465329,-1.059407,0.8954869,0.04098167,0.9670576,-0.2139774,-9.228943,-35.98012,-7.253583,1008.095
1.312475205,2.403569,-1.420609,0.8954869,0.03712166,0.965592,-0.2173461,-9.228943,-35.98012,-7.253583,1008.095
1.317499638,2.033009,-1.721611,0.5290945,0.03617067,0.964096,-0.2135334,-9.228943,-35.98012,-7.253583,1008.095
1.322524071,1.909488,-1.781811,0.9565524,0.04240029,0.9700267,-0.2187295,-9.228943,-35.98012,-7.253583,1008.093
1.327548981,1.847728,-2.022613,0.8344215,0.03995589,0.9719716,-0.2201399,-9.595762,-36.35411,-7.711388,1008.093
1.332572937,1.600688,-2.143013,0.7122907,0.0409404,0.9705279,-0.2220745,-9.595762,-36.35411,-7.711388,1008.093
1.337597370,1.724208,-2.203214,0.4680291,0.04191042,0.9705113,-0.218723,-9.595762,-36.35411,-7.711388,1008.093
1.342622280,1.785968,-2.203214,0.7733561,0.0487303,0.9671418,-0.21877,-9.595762,-36.35411,-7.711388,1008.093
1.347648144,1.662448,-1.962412,0.6512253,0.04630831,0.9671258,-0.2187687,-9.595762,-36.35411,-7.711388,1008.093
1.352671623,1.971248,-2.082813,0.6512253,0.04830573,0.9617801,-0.2197958,-9.595762,-36.35411,-7.711388,1008.093
1.357696056,1.971248,-1.962412,0.4680291,0.05115741,0.9666767,-0.2197351,-9.595762,-36.35411,-7.711388,1008.093
1.362718105,2.094769,-1.60121,0.4680291,0.05216043,0.9637302,-0.2159421,-9.595762,-36.35411,-7.711388,1008.093
1.367740631,2.033009,-1.300208,0.59016,0.05311991,0.9642971,-0.2264712,-9.595762,-36.35411,-7.711388,1008.093
1.475768089,3.94757,0.3252012,0.04057138,0.0472628,0.9685558,-0.2130042,-9.228756,-35.98018,-7.318543,1008.096
1.478280068,4.13285,0.3854016,0.2237676,0.05700618,0.9637293,-0.2111559,-9.228756,-35.98018,-7.318543,1008.096
1.480792523,4.19461,0.626203,0.1016368,0.05359811,0.9651866,-0.2135298,-9.228756,-35.98018,-7.318543,1008.096
1.485821724,4.25637,0.8068041,-0.3868864,0.05164712,0.9661955,-0.2202204,-9.228756,-35.98018,-7.318543,1008.098
1.490841389,4.31813,1.348607,-0.631148,0.05065004,0.9690297,-0.2077323,-9.228756,-35.98018,-7.318543,1008.098
1.498378277,4.31813,1.70981,-0.8754095,0.05651631,0.9642138,-0.2111495,-9.228756,-35.98018,-7.318543,1008.098
1.500890255,4.25637,1.83021,-1.058606,0.05502551,0.9676052,-0.2091897,-9.228756,-35.98018,-7.318543,1008.098
1.505915165,4.13285,2.010811,-1.241802,0.0526321,0.9651274,-0.2058676,-9.228756,-35.98018,-7.318543,1008.098
1.510939598,4.19461,2.793416,-1.424998,0.05740904,0.9710387,-0.2096263,-9.228756,-35.98018,-7.318543,1008.098
1.515963555,4.07109,3.094418,-1.608194,0.05791992,0.9686196,-0.2120519,-9.228756,-35.98018,-7.318543,1008.098
1.520988464,4.07109,3.51582,-1.424998,0.05060028,0.9734292,-0.2091129,-9.228943,-35.98012,-7.253583,1008.098
1.526012898,3.76229,4.057623,-1.547129,0.05162838,0.968087,-0.2115761,-9.228943,-35.98012,-7.253583,1008.098
1.531041622,3.88581,3.997423,-1.486063,0.04234646,0.9748875,-0.216273,-9.228943,-35.98012,-7.253583,1008.098
1.536062241,3.577009,4.479026,-1.608194,0.04334296,0.9724487,-0.2153468,-9.228943,-35.98012,-7.253583,1008.098
1.541086674,3.515249,4.418826,-1.363933,0.04432695,0.971015,-0.218718,-9.228943,-35.98012,-7.253583,1008.098
1.649113655,1.353648,1.890411,-0.325821,0.03511877,0.9714254,-0.2163128,-9.228943,-35.98012,-7.253583,1008.098
1.654134274,1.785968,1.77001,-0.5700825,0.03904355,0.9670547,-0.215413,-9.228943,-35.98012,-7.253583,1008.098
1.656646252,1.785968,1.589409,-0.631148,0.04006526,0.9626022,-0.2054134,-9.228943,-35.98012,-7.253583,1008.098
1.661670685,1.847728,1.288407,-0.631148,0.04341828,0.9660289,-0.2039351,-9.228943,-35.98012,-7.253583,1008.098
1.666695118,1.662448,1.348607,-0.631148,0.04249819,0.9616427,-0.2054271,-9.228943,-35.98012,-7.253583,1008.098
1.671720028,1.724208,0.8670045,-0.631148,0.04202543,0.9606509,-0.2035239,-8.854443,-36.34659,-7.252559,1008.098
1.676744461,1.662448,0.7466037,-0.6922134,0.04821321,0.9704472,-0.2034027,-8.854443,-36.34659,-7.252559,1008.098
1.681769371,1.538928,0.3252012,-0.631148,0.04680058,0.9669805,-0.1972203,-8.854443,-36.34659,-7.252559,1008.098
1.686793327,1.785968,0.08439979,-0.631148,0.04579401,0.9703784,-0.1957397,-8.854443,-36.34659,-7.252559,1008.096
1.691817761,1.785968,-0.3370027,-0.5700825,0.0438215,0.9733316,-0.2014477,-8.854443,-36.34659,-7.252559,1008.096
1.696842194,2.033009,-0.6380045,-0.5700825,0.046838,0.9635829,-0.1996581,-8.854443,-36.34659,-7.252559,1008.096
1.701867104,1.847728,-0.5176038,-0.2036902,0.04966711,0.9704436,-0.201488,-8.854443,-36.34659,-7.252559,1008.096
1.706891537,2.094769,-0.7584053,-0.1426248,0.04438388,0.9664801,-0.1977042,-8.854443,-36.34659,-7.252559,1008.096
1.711916447,2.156528,-0.5176038,-0.2036902,0.05013457,0.9719199,-0.2029061,-8.854443,-36.34659,-7.252559,1008.096
1.716940403,2.280049,-0.6380045,0.04057138,0.04724209,0.9708691,-0.1947765,-8.852369,-36.71625,-6.863831,1008.096
1.721964836,2.465329,-0.6380045,0.4680291,0.05550725,0.9680433,-0.201522,-8.852369,-36.71625,-6.863831,1008.096
1.832504272,-4.513556,-0.6380045,1.689337,0.03757722,0.9672926,-0.2513267,-9.59499,-36.72335,-6.867941,1008.098
1.835016727,-4.884117,-0.7584053,1.872533,0.03468316,0.9662716,-0.2475069,-9.59499,-36.72335,-6.867941,1008.098
1.837528706,-4.945877,-0.7584053,1.750403,0.02983865,0.9662495,-0.248941,-9.59499,-36.72335,-6.867941,1008.098
1.842553616,-5.501717,-0.8186056,1.567206,0.03620148,0.9604382,-0.2490188,-9.59499,-36.72335,-6.867941,1008.098
1.847578049,-5.810517,-1.059407,1.506141,0.03519689,0.9634144,-0.2571216,-9.59499,-36.72335,-6.867941,1008.098
1.852598667,-6.242838,-1.240008,1.261879,0.04244734,0.9649091,-0.2547123,-9.59499,-36.72335,-6.867941,1008.098
1.857622623,-6.613398,-1.360409,1.139749,0.037114,0.9653518,-0.2532668,-9.59499,-36.72335,-6.867941,1008.098
1.862647533,-6.736918,-1.420609,1.200814,0.03858151,0.9639377,-0.2590325,-9.59499,-36.72335,-6.867941,1008.098
1.867671967,-7.292758,-1.360409,1.567206,0.04482627,0.9688138,-0.2527483,-9.226868,-36.34977,-6.864855,1008.098
1.872697353,-7.416278,-1.179808,1.38401,0.03954235,0.9648635,-0.25088,-9.226868,-36.34977,-6.864855,1008.098
1.877721310,-7.786839,-1.179808,1.200814,0.04149583,0.963423,-0.2523362,-9.226868,-36.34977,-6.864855,1008.098
1.882745743,-7.972119,-0.9390063,1.445076,0.0457896,0.969308,-0.2527426,-9.226868,-36.34977,-6.864855,1008.098
1.887769699,-8.58972,-0.8186056,1.38401,0.04341014,0.9654132,-0.2561432,-9.226868,-36.34977,-6.864855,1008.098
1.892795563,-8.775,-0.7584053,1.261879,0.04285178,0.9721888,-0.248873,-9.226868,-36.34977,-6.864855,1008.098
1.897819042,-9.0838,-0.7584053,1.017618,0.04875844,0.963919,-0.2465873,-9.226868,-36.34977,-6.864855,1008.098
1.902843475,-9.454361,-0.6380045,1.017618,0.04633732,0.9638866,-0.2441918,-9.226868,-36.34977,-6.864855,1008.098
2.015894890,-1.549074,0.5058023,0.59016,0.0541716,0.9573562,-0.2093198,-9.594461,-36.35454,-8.166106,1008.096
2.018407822,-1.302034,0.626203,0.7733561,0.05034105,0.9534122,-0.2069733,-9.594461,-36.35454,-8.166106,1008.096
2.023432255,-0.8079537,0.8068041,0.59016,0.05275688,0.9539292,-0.2088838,-9.594461,-36.35454,-8.166106,1008.096
2.025944233,-0.4991535,0.6864034,0.7122907,0.04884286,0.9573276,-0.2102748,-9.594461,-36.35454,-8.166106,1008.096
2.030968666,0.118447,0.5660027,0.7122907,0.047885,0.9563458,-0.2102868,-9.594461,-36.35454,-8.166106,1008.096
2.035993576,0.7978075,0.626203,0.7122907,0.04977796,0.960277,-0.2126323,-9.594461,-36.35454,-8.166106,1008.096
2.041018009,1.415408,0.8068041,0.7733561,0.04639333,0.9597536,-0.2107214,-9.594461,-36.35454,-8.166106,1008.096
2.046041965,1.724208,0.5058023,0.7122907,0.04732065,0.963619,-0.204447,-9.594461,-36.35454,-8.166106,1008.096
2.051062584,1.909488,0.3252012,0.5290945,0.04392228,0.964124,-0.2101853,-9.594461,-36.35454,-8.166106,1008.096
2.056087494,2.094769,0.3854016,0.4680291,0.04635132,0.9636226,-0.205883,-9.594461,-36.35454,-8.166106,1008.095
2.061111927,2.527089,0.2048005,0.6512253,0.04586657,0.9636259,-0.2068405,-9.970263,-35.98764,-7.712412,1008.095
2.066136837,2.218288,0.3252012,0.5290945,0.05016122,0.9694944,-0.2048527,-9.970263,-35.98764,-7.712412,1008.095
2.071161270,2.527089,0.2650009,0.59016,0.05164532,0.9666139,-0.2101582,-9.970263,-35.98764,-7.712412,1008.095
2.076185226,2.341809,0.3252012,0.4680291,0.04676531,0.9699532,-0.203887,-9.970263,-35.98764,-7.712412,1008.095
2.081210613,2.774129,0.2048005,0.3458984,0.04585406,0.9646311,-0.2111378,-9.970263,-35.98764,-7.712412,1008.095
2.086234570,2.897649,0.1446002,0.4680291,0.05406446,0.9670681,-0.2029703,-9.970263,-35.98764,-7.712412,1008.095
2.091259003,3.082929,0.2650009,0.1627022,0.04572998,0.9758161,-0.2062062,-9.970263,-35.98764,-7.712412,1008.095
2.096283913,3.144689,0.2048005,0.3458984,0.0462525,0.9724085,-0.2067288,-9.970263,-35.98764,-7.712412,1008.099
2.101308346,2.959409,0.2650009,0.2237676,0.04965157,0.9718903,-0.199075,-9.970263,-35.98764,-7.712412,1008.099
2.106332302,2.835889,0.445602,0.3458984,0.04726734,0.96847,-0.2005539,-9.970263,-35.98764,-7.712412,1008.099
2.111356735,2.588849,0.5660027,0.284833,0.05153888,0.9763126,-0.2018932,-10.33838,-36.36121,-7.715499,1008.099
2.116381645,2.588849,0.2650009,0.4069638,0.04430309,0.9733876,-0.2091097,-10.33838,-36.36121,-7.715499,1008.099
2.121406078,2.341809,0.1446002,0.1627022,0.04333976,0.9728935,-0.2091154,-10.33838,-36.36121,-7.715499,1008.099
2.126430988,2.341809,-0.2768023,0.1627022,0.04575187,0.9738652,-0.2062311,-10.33838,-36.36121,-7.715499,1008.099
2.131454945,2.280049,-0.216602,0.1627022,0.04376963,0.9777707,-0.2085747,-10.33838,-36.36121,-7.715499,1008.099
2.136479378,2.156528,-0.2768023,-0.0815594,0.04714506,0.9792366,-0.2056846,-10.33838,-36.36121,-7.715499,1008.099
2.141504288,2.218288,-0.2768023,-0.2036902,0.0472259,0.9719436,-0.2091298,-10.33838,-36.36121,-7.715499,1008.099
2.146528721,1.909488,-0.03600093,-0.1426248,0.04963975,0.9728823,-0.2014569,-10.33838,-36.36121,-7.715499,1008.099
2.151553154,2.156528,-0.216602,-0.1426248,0.05008958,0.9758449,-0.2062084,-10.33838,-36.36121,-7.715499,1008.099
2.156578064,1.971248,-0.03600093,-0.2036902,0.05153766,0.9763356,-0.2052452,-10.33838,-36.36121,-7.715499,1008.099
2.161602020,2.218288,0.2048005,-0.02049401,0.04921448,0.9675338,-0.2043982,-9.600252,-35.98367,-7.255638,1008.099
2.166626453,2.527089,0.1446002,-0.0815594,0.05163223,0.9680144,-0.2010412,-9.600252,-35.98367,-7.255638,1008.099
2.171651363,2.588849,0.1446002,-0.2647556,0.04723224,0.9714394,-0.2067418,-9.600252,-35.98367,-7.255638,1008.099
2.176675797,2.650609,0.08439979,-0.1426248,0.05058702,0.974833,-0.2004748,-9.600252,-35.98367,-7.255638,1008.099
2.181700707,2.527089,-0.03600093,-0.2647556,0.04719995,0.9743559,-0.2052679,-9.600252,-35.98367,-7.255638,1008.099
2.186725140,2.527089,-0.03600093,-0.3868864,0.05158247,0.972414,-0.2024218,-9.600252,-35.98367,-7.255638,1008.099
2.191749096,2.465329,-0.2768023,-0.325821,0.0492014,0.9689343,-0.1952812,-9.600252,-35.98367,-7.255638,1008.099
2.196773529,2.588849,-0.216602,-0.4479518,0.04678736,0.9679989,-0.203433,-9.600252,-35.98367,-7.255638,1008.099
2.201798439,2.650609,-0.09620129,-0.631148,0.05166011,0.9655658,-0.1996357,-9.600252,-35.98367,-7.255638,1008.099
2.206822872,2.959409,0.2048005,-0.6922134,0.04484872,0.9680059,-0.2063052,-9.600252,-35.98367,-7.255638,1008.099
2.211847782,3.082929,-0.09620129,-0.7532787,0.0477745,0.9665058,-0.1981847,-9.233244,-35.60973,-6.862793,1008.099
2.216871738,3.329969,0.1446002,-0.9364749,0.05063765,0.970417,-0.1966999,-9.233244,-35.60973,-6.862793,1008.099
2.221896172,3.45349,-0.03600093,-0.8143441,0.04915024,0.9733602,-0.2004927,-9.233244,-35.60973,-6.862793,1008.099
2.226921082,3.577009,0.1446002,-0.8143441,0.04921129,0.9679786,-0.1981668,-9.233244,-35.60973,-6.862793,1008.099
2.231945515,3.515249,0.3252012,-1.058606,0.05113386,0.9694282,-0.1943183,-9.233244,-35.60973,-6.862793,1008.099
2.236969948,3.63877,0.2048005,-1.058606,0.04773515,0.9699398,-0.2010144,-9.233244,-35.60973,-6.862793,1008.099
2.241994858,3.45349,0.3252012,-1.119671,0.05066024,0.9684528,-0.1948093,-9.233244,-35.60973,-6.862793,1008.099
2.247018814,3.45349,0.3854016,-1.363933,0.05062369,0.971834,-0.1899772,-9.233244,-35.60973,-6.862793,1008.099
2.252039433,3.45349,0.3252012,-0.9975403,0.05014831,0.9708916,-0.1952568,-9.233244,-35.60973,-6.862793,1008.099
2.257063866,3.329969,0.3252012,-1.180736,0.04577778,0.9718383,-0.1952422,-9.233244,-35.60973,-6.862793,1008.099
2.262088776,3.329969,0.1446002,-1.486063,0.04291055,0.9683884,-0.1928899,-9.968374,-36.35723,-7.258724,1008.099
2.267113209,3.144689,0.2650009,-1.302867,0.04959634,0.9767776,-0.2004494,-9.968374,-36.35723,-7.258724,1008.099
2.272137642,3.206449,-0.03600093,-1.302867,0.0477348,0.9699464,-0.2019721,-9.968374,-36.35723,-7.258724,1008.099
2.277162075,3.144689,0.2048005,-1.424998,0.0458064,0.9689911,-0.2067721,-9.968374,-36.35723,-7.258724,1008.099
2.282186508,3.206449,0.02419943,-1.241802,0.05013422,0.9719265,-0.2038639,-9.968374,-36.35723,-7.258724,1008.099
2.287210941,3.082929,0.08439979,-1.363933,0.04490977,0.9626243,-0.2039793,-9.968374,-36.35723,-7.258724,1008.099
2.292235851,3.268209,0.1446002,-1.241802,0.0487398,0.9665782,-0.2077624,-9.968374,-36.35723,-7.258724,1008.099
2.297260284,3.206449,0.02419943,-1.302867,0.0472596,0.9690007,-0.2067729,-9.968374,-36.35723,-7.258724,1008.097
2.302285194,3.144689,-0.09620129,-1.302867,0.05067297,0.9670589,-0.204884,-9.968374,-36.35723,-7.258724,1008.097
2.307309628,2.897649,-0.09620129,-1.180736,0.0516423,0.9670554,-0.2034479,-9.603439,-35.61364,-7.254607,1008.097
2.312333584,2.897649,0.2048005,-1.363933,0.04869656,0.9704702,-0.2062761,-9.603439,-35.61364,-7.254607,1008.097
2.317358017,2.650609,0.2048005,-1.241802,0.04823352,0.9685259,-0.2077373,-9.603439,-35.61364,-7.254607,1008.097
2.322382927,2.712369,0.08439979,-1.119671,0.05210503,0.9686208,-0.2177953,-9.603439,-35.61364,-7.254607,1008.097
2.327407360,2.774129,0.2650009,-0.9364749,0.04625995,0.971499,-0.2163185,-9.603439,-35.61364,-7.254607,1008.097
2.332431316,3.144689,0.1446002,-1.119671,0.05110555,0.9711159,-0.2268621,-9.603439,-35.61364,-7.254607,1008.097
2.337456226,3.329969,0.02419943,-0.9975403,0.04919317,0.9690894,-0.2177876,-9.603439,-35.61364,-7.254607,1008.097
2.342480660,3.515249,-0.09620129,-1.058606,0.04723724,0.9705761,-0.2230354,-9.603439,-35.61364,-7.254607,1008.097
2.347505570,3.76229,-0.03600093,-0.9975403,0.04868864,0.9710041,-0.2129739,-9.603439,-35.61364,-7.254607,1008.097
2.352530003,3.577009,-0.09620129,-0.9364749,0.04773502,0.9695576,-0.2163441,-9.603439,-35.61364,-7.254607,1008.097
2.357554436,3.391729,-0.1564016,-1.058606,0.051081,0.9735017,-0.2191692,-9.228943,-35.98012,-7.253583,1008.097
2.362578392,3.144689,-0.216602,-0.7532787,0.0458096,0.9685462,-0.2130035,-9.228943,-35.98012,-7.253583,1008.097
2.367603302,2.403569,-0.03600093,-0.6922134,0.05159311,0.9710596,-0.2182428,-9.228943,-35.98012,-7.253583,1008.097
2.372627735,1.785968,-0.03600093,-0.8143441,0.04775656,0.9676133,-0.2173267,-9.228943,-35.98012,-7.253583,1008.097
2.377652645,1.353648,-0.216602,-0.6922134,0.04771262,0.9715185,-0.2177558,-9.228943,-35.98012,-7.253583,1008.1
2.382677078,1.291888,-0.03600093,-0.631148,0.04577716,0.9710807,-0.2268594,-9.228943,-35.98012,-7.253583,1008.1
2.387701988,1.168368,0.02419943,-0.6922134,0.04921732,0.9670955,-0.2115873,-9.228943,-35.98012,-7.253583,1008.1
2.392725945,1.044848,0.08439979,-0.631148,0.04963788,0.9725332,-0.2215752,-9.228943,-35.98012,-7.253583,1008.1
2.397750378,1.291888,-0.03600093,-0.5090172,0.04776982,0.9662095,-0.2259648,-9.228943,-35.98012,-7.253583,1008.1
2.402774811,1.230128,0.02419943,-0.5700825,0.05210416,0.9686373,-0.2201896,-9.228943,-35.98012,-7.253583,1008.1
2.407799721,1.168368,-0.1564016,-0.5700825,0.05260462,0.9671839,-0.2211662,-9.599478,-36.3529,-6.412191,1008.1
2.412828446,1.168368,0.08439979,-0.5090172,0.04922389,0.9662026,-0.2235712,-9.599478,-36.3529,-6.412191,1008.1
2.417849064,1.044848,0.08439979,-0.5090172,0.05647697,0.9676478,-0.2139791,-9.599478,-36.3529,-6.412191,1008.102
2.422873020,0.9830876,0.2048005,-0.3868864,0.05355859,0.9686238,-0.2168383,-9.599478,-36.3529,-6.412191,1008.102
2.427897453,0.4272472,0.3854016,-0.5090172,0.05254672,0.9725062,-0.2148726,-9.599478,-36.3529,-6.412191,1008.102
2.432922363,0.2419671,0.626203,-0.1426248,0.04915365,0.9725267,-0.2210961,-9.599478,-36.3529,-6.412191,1008.102
2.437946797,-0.1903532,0.445602,-0.2036902,0.05010371,0.9744246,-0.2124522,-9.599478,-36.3529,-6.412191,1008.102
2.442971230,-0.4373934,0.445602,-0.2647556,0.05017978,0.9676062,-0.2139759,-9.599478,-36.3529,-6.412191,1008.102
2.447995186,-0.3756334,0.445602,-0.2647556,0.04530703,0.9700392,-0.2177732,-9.599478,-36.3529,-6.412191,1008.102
2.450503826,-0.4373934,0.445602,-0.2036902,0.05162541,0.968143,-0.2197167,-9.599478,-36.3529,-6.412191,1008.102
2.455528736,-0.6844336,0.2048005,-0.0815594,0.04717369,0.9763894,-0.2172145,-9.600252,-35.98367,-7.255638,1008.102
2.460552693,-0.6226736,0.3252012,-0.0815594,0.05113588,0.9686211,-0.2187525,-9.600252,-35.98367,-7.255638,1008.1
2.465577126,-0.9314737,0.3252012,-0.0815594,0.04873153,0.9671187,-0.215418,-9.600252,-35.98367,-7.255638,1008.1
2.470602036,-0.8697137,0.2048005,0.04057138,0.05019991,0.9656882,-0.2187894,-9.600252,-35.98367,-7.255638,1008.1
2.475626469,-0.7461936,0.2048005,0.1016368,0.05015947,0.9695274,-0.2096413,-9.600252,-35.98367,-7.255638,1008.1
2.480650902,-0.6226736,0.2650009,0.1627022,0.04677822,0.968556,-0.2134829,-9.600252,-35.98367,-7.255638,1008.1
2.485675812,-0.6844336,0.5058023,0.1627022,0.05159893,0.9705653,-0.2172913,-9.600252,-35.98367,-7.255638,1008.1
2.490700245,-0.6226736,0.3854016,0.284833,0.04628148,0.9695547,-0.2173011,-9.600252,-35.98367,-7.255638,1008.1
2.495724201,-0.6844336,0.5058023,0.3458984,0.04629824,0.9680848,-0.216362,-9.600252,-35.98367,-7.255638,1008.1
2.500749111,-0.8079537,0.445602,0.1627022,0.04673905,0.9719867,-0.2158336,-9.600252,-35.98367,-7.255638,1008.102
2.505773544,-0.9314737,0.3854016,0.3458984,0.05598605,0.9681521,-0.2168458,-9.228943,-35.98012,-7.253583,1008.102
2.510798454,-0.9932337,0.1446002,0.4680291,0.04967809,0.9690828,-0.2163513,-9.228943,-35.98012,-7.253583,1008.102
2.515822888,-0.9932337,0.2650009,0.3458984,0.04532821,0.9681014,-0.2197135,-9.228943,-35.98012,-7.253583,1008.102
2.520846844,-0.7461936,0.2048005,0.5290945,0.05065591,0.9681499,-0.2216317,-9.228943,-35.98012,-7.253583,1008.102
2.525871277,-0.7461936,0.3854016,0.5290945,0.0496451,0.9720125,-0.2167928,-9.228943,-35.98012,-7.253583,1008.102
2.530896187,-0.7461936,0.2048005,0.59016,0.05117028,0.9656649,-0.2144801,-9.228943,-35.98012,-7.253583,1008.102
2.535920620,-0.8697137,0.445602,0.5290945,0.04968584,0.9685521,-0.2101323,-9.228943,-35.98012,-7.253583,1008.102
2.540945530,-1.178514,0.2048005,0.6512253,0.04342362,0.965159,-0.219271,-9.228943,-35.98012,-7.253583,1008.1
2.545969963,-1.425554,0.5058023,0.8344215,0.04430239,0.9734008,-0.2110252,-9.228943,-35.98012,-7.253583,1008.1
2.550993920,-1.610834,0.2650009,0.8344215,0.04478981,0.9729625,-0.2177356,-9.228943,-35.98012,-7.253583,1008.1
2.556018829,-1.981395,0.3252012,0.59016,0.04530034,0.9705501,-0.221119,-9.972677,-35.98685,-6.867934,1008.1
2.561043263,-2.104915,0.445602,0.9565524,0.05020288,0.9656321,-0.2106487,-9.972677,-35.98685,-6.867934,1008.1
2.566067696,-1.981395,0.3252012,0.8954869,0.044361,0.9680654,-0.2154033,-9.972677,-35.98685,-6.867934,1008.1
2.571092606,-1.796114,0.2650009,0.8344215,0.05023978,0.9622443,-0.2145232,-9.972677,-35.98685,-6.867934,1008.1
2.576117039,-1.549074,0.2650009,0.8954869,0.04526892,0.9734501,-0.2172508,-9.972677,-35.98685,-6.867934,1008.1
2.581140995,-1.363794,0.1446002,1.017618,0.04871529,0.9685786,-0.2149204,-9.972677,-35.98685,-6.867934,1008.103
2.586165905,-1.363794,0.2650009,0.8344215,0.04581948,0.9675906,-0.2158891,-9.972677,-35.98685,-6.867934,1008.103
2.591190338,-1.734354,0.2650009,0.8344215,0.04622253,0.9748967,-0.2138806,-9.972677,-35.98685,-6.867934,1008.103
2.596215248,-1.796114,0.2650009,0.6512253,0.04385914,0.9695452,-0.2182576,-9.972677,-35.98685,-6.867934,1008.103
2.601240158,-1.981395,0.2650009,0.5290945,0.04865087,0.9744084,-0.2114938,-9.972677,-35.98685,-6.867934,1008.103
2.606263638,-1.919635,0.2650009,0.5290945,0.04625622,0.9719537,-0.2115237,-9.222567,-36.72016,-7.255645,1008.103
2.611288071,-1.857875,0.5058023,0.7122907,0.04632577,0.9656428,-0.2159142,-9.222567,-36.72016,-7.255645,1008.103
2.616312981,-1.734354,0.5058023,0.6512253,0.04775726,0.9676001,-0.2154112,-9.222567,-36.72016,-7.255645,1008.103
2.621337414,-1.610834,0.5058023,0.7122907,0.04777174,0.9661732,-0.2206973,-9.222567,-36.72016,-7.255645,1008.103
2.626362324,-1.363794,0.3854016,0.7733561,0.04435977,0.9680885,-0.2187553,-9.222567,-36.72016,-7.255645,1008.103
2.631386757,-1.116754,0.5660027,0.59016,0.0487033,0.9695739,-0.2177811,-9.222567,-36.72016,-7.255645,1008.103
2.636410713,-0.9314737,0.3252012,0.7122907,0.04574552,0.9743694,-0.2086192,-9.222567,-36.72016,-7.255645,1008.103
2.641435623,-0.9314737,0.445602,0.7122907,0.03758645,0.9675032,-0.2110964,-9.222567,-36.72016,-7.255645,1008.103
2.646460056,-1.116754,0.5058023,0.59016,0.04672986,0.9729291,-0.2110326,-9.222567,-36.72016,-7.255645,1008.103
2.651480675,-1.549074,0.3854016,0.59016,0.04530861,0.9700096,-0.2134635,-9.598951,-35.98409,-7.710357,1008.103
2.656505108,-2.228435,0.626203,0.4680291,0.04040072,0.9757975,-0.2085978,-9.598951,-35.98409,-7.710357,1008.103
2.661530018,-3.093075,0.9272048,0.284833,0.04335745,0.9710218,-0.220633,-9.598951,-35.98409,-7.710357,1008.103
2.666553974,-3.401875,0.9874052,0.284833,0.04488014,0.9651059,-0.2101734,-9.598951,-35.98409,-7.710357,1008.103
2.671578407,-3.463636,0.9874052,0.2237676,0.04235705,0.9739187,-0.2172431,-9.598951,-35.98409,-7.710357,1008.103
2.676603317,-3.278356,0.9874052,0.1627022,0.04150668,0.9632183,-0.2226469,-9.598951,-35.98409,-7.710357,1008.103
2.681627751,-2.722515,1.228207,0.1627022,0.04295703,0.9636661,-0.2154585,-9.598951,-35.98409,-7.710357,1008.103
2.686652184,-2.413715,0.8068041,-0.02049401,0.0482849,0.9637113,-0.2168978,-9.598951,-35.98409,-7.710357,1008.103
2.691679478,-1.919635,1.107806,0.1016368,0.04343614,0.9641539,-0.2149737,-9.598951,-35.98409,-7.710357,1008.103
2.696701050,-2.043155,0.9272048,0.284833,0.05118354,0.9642612,-0.2231182,-9.598951,-35.98409,-7.710357,1008.103
2.701725483,-2.104915,0.8670045,0.2237676,0.04628922,0.9690241,-0.2110821,-8.85503,-35.97742,-8.160965,1008.103
2.706750870,-2.104915,0.8670045,0.2237676,0.04626612,0.970998,-0.2144093,-8.85503,-35.97742,-8.160965,1008.103
2.711774826,-2.104915,1.047606,-0.02049401,0.04724248,0.9704771,-0.2086696,-8.85503,-35.97742,-8.160965,1008.103
2.716799736,-1.981395,0.8670045,0.04057138,0.04530296,0.9705006,-0.2139361,-8.85503,-35.97742,-8.160965,1008.103
2.721823692,-1.734354,0.9874052,0.1627022,0.04480163,0.9719706,-0.2153538,-8.85503,-35.97742,-8.160965,1008.103
2.726848126,-1.734354,0.7466037,-0.0815594,0.04533683,0.9675544,-0.2111003,-8.85503,-35.97742,-8.160965,1008.103
2.731872559,-1.610834,0.626203,-0.02049401,0.04532927,0.9680817,-0.2168404,-8.85503,-35.97742,-8.160965,1008.103
2.736897469,-1.672594,0.7466037,-0.2647556,0.04482986,0.9695153,-0.2129906,-8.85503,-35.97742,-8.160965,1008.103
2.741921902,-1.610834,0.8068041,0.04057138,0.04776343,0.9670991,-0.213502,-8.85503,-35.97742,-8.160965,1008.103
2.746946812,-1.672594,0.6864034,-0.1426248,0.04769231,0.9734398,-0.2134212,-8.85503,-35.97742,-8.160965,1008.103
2.751970768,-1.672594,0.5058023,0.04057138,0.04723754,0.970955,-0.2072269,-9.219378,-37.09018,-7.256676,1008.103
2.756995201,-1.610834,0.5660027,-0.02049401,0.0439004,0.9660749,-0.2101604,-9.219378,-37.09018,-7.256676,1008.103
2.762020111,-1.487314,0.3854016,0.04057138,0.04146025,0.9675552,-0.2149292,-9.219378,-37.09018,-7.256676,1008.103
2.767044544,-1.425554,0.3252012,-0.02049401,0.04238353,0.9714965,-0.2196685,-9.219378,-37.09018,-7.256676,1008.103
2.772068977,-1.425554,0.5058023,0.1016368,0.04627526,0.970441,-0.2043594,-9.219378,-37.09018,-7.256676,1008.103
2.777092934,-1.549074,0.3854016,-0.0815594,0.03660194,0.9689468,-0.2091618,-9.219378,-37.09018,-7.256676,1008.103
2.782117844,-1.857875,0.445602,-0.2647556,0.04235793,0.9739022,-0.2148488,-9.219378,-37.09018,-7.256676,1008.103
2.787142277,-2.104915,0.1446002,-0.2647556,0.04486623,0.9661375,-0.2183016,-9.219378,-37.09018,-7.256676,1008.105
2.792167187,-1.919635,0.2650009,-0.2647556,0.039523,0.9675358,-0.2139705,-9.219378,-37.09018,-7.256676,1008.105
2.797191620,-1.672594,-0.1564016,-0.3868864,0.04581134,0.9685132,-0.2082149,-9.219378,-37.09018,-7.256676,1008.105
2.802216530,-1.549074,0.2048005,-0.5090172,0.04775389,0.9680482,-0.2096587,-9.600252,-35.98367,-7.255638,1008.105
2.807240486,-1.487314,0.2048005,-0.5700825,0.04820494,0.9709878,-0.2110582,-9.600252,-35.98367,-7.255638,1008.105
2.812264919,-1.363794,0.2048005,-0.3868864,0.04924678,0.9646173,-0.2058721,-9.600252,-35.98367,-7.255638,1008.105
2.817290783,-1.425554,0.2650009,-0.4479518,0.04967735,0.9694813,-0.2034159,-9.600252,-35.98367,-7.255638,1008.105
2.822314262,-1.425554,0.3854016,-0.4479518,0.04436892,0.9675315,-0.2087055,-9.600252,-35.98367,-7.255638,1008.105
2.827338695,-1.240274,0.445602,-0.3868864,0.05118367,0.9646432,-0.2077885,-9.600252,-35.98367,-7.255638,1008.105
2.832363605,-0.9314737,0.3854016,-0.3868864,0.04207047,0.9563404,-0.2150724,-9.600252,-35.98367,-7.255638,1008.105
2.837387562,-0.8079537,0.1446002,-0.2036902,0.04295686,0.9636694,-0.2159374,-9.600252,-35.98367,-7.255638,1008.105
2.842411995,-0.6226736,0.02419943,-0.5700825,0.0463508,0.9636325,-0.2073196,-9.600252,-35.98367,-7.255638,1008.105
2.847436428,-0.6844336,-0.216602,-0.5090172,0.0472831,0.9666346,-0.2173389,-9.600252,-35.98367,-7.255638,1008.105
2.852457523,-0.4373934,-0.09620129,-0.631148,0.04439172,0.9651786,-0.2211869,-9.227642,-35.98054,-7.708302,1008.105
2.857481956,-0.1903532,-0.1564016,-0.4479518,0.04096246,0.9685736,-0.2216205,-9.227642,-35.98054,-7.708302,1008.105
2.862506390,0.05668695,-0.2768023,-0.7532787,0.04532927,0.9680817,-0.2168404,-9.227642,-35.98054,-7.708302,1008.105
2.867530346,0.118447,-0.216602,-0.5700825,0.04918433,0.9700252,-0.2120289,-9.227642,-35.98054,-7.708302,1008.105
2.872558594,0.3654872,0.02419943,-0.9364749,0.04923886,0.9651512,-0.2125699,-9.227642,-35.98054,-7.708302,1008.105
2.877579689,0.4272472,0.2650009,-0.9975403,0.05210678,0.9685878,-0.2130067,-9.227642,-35.98054,-7.708302,1008.105
2.882604599,0.4272472,0.3252012,-0.9364749,0.05217028,0.96316,-0.2039768,-9.227642,-35.98054,-7.708302,1008.105
2.887629032,0.6742874,0.3854016,-0.9975403,0.05115969,0.9666339,-0.2135099,-9.227642,-35.98054,-7.708302,1008.105
2.892653465,0.6742874,0.5058023,-0.9364749,0.05064899,0.9690495,-0.2106055,-9.227642,-35.98054,-7.708302,1008.105
2.897677422,0.6742874,0.5058023,-0.9975403,0.05209054,0.9700478,-0.2125092,-9.227642,-35.98054,-7.708302,1008.105
2.902702332,0.6125274,0.7466037,-0.9975403,0.04384569,0.9709523,-0.2100983,-9.227642,-35.98054,-7.708302,1008.105
2.907726765,0.6125274,0.6864034,-0.9975403,0.04828682,0.963675,-0.2116303,-9.227642,-35.98054,-7.708302,1008.105
2.912751675,0.9213276,0.9874052,-0.9364749,0.04770942,0.9719633,-0.2115244,-9.227642,-35.98054,-7.708302,1008.105
2.917776108,0.6742874,0.8068041,-0.9975403,0.04732547,0.9627591,-0.2212195,-9.227642,-35.98054,-7.708302,1008.105
2.922800064,0.9830876,0.8670045,-0.6922134,0.04190333,0.9714141,-0.2081757,-9.227642,-35.98054,-7.708302,1008.105
2.927824974,0.9213276,0.7466037,-0.9364749,0.04629859,0.9680782,-0.2154043,-9.227642,-35.98054,-7.708302,1008.105
2.932849407,0.9830876,0.5660027,-0.8143441,0.04340296,0.9670868,-0.2158941,-9.227642,-35.98054,-7.708302,1008.105
2.937873840,0.9830876,0.626203,-0.631148,0.03853057,0.9695134,-0.2187337,-9.227642,-35.98054,-7.708302,1008.105
2.942898750,1.168368,0.445602,-0.7532787,0.04774702,0.9685624,-0.2134834,-9.227642,-35.98054,-7.708302,1008.105
2.947923183,1.168368,0.626203,-0.7532787,0.04536261,0.9651453,-0.2154411,-9.227642,-35.98054,-7.708302,1008.111
2.952947140,1.168368,0.445602,-0.8143441,0.04389883,0.9661046,-0.2144702,-9.227642,-35.98054,-7.708302,1008.111
2.955460072,1.168368,0.3854016,-0.8143441,0.04823124,0.9685689,-0.2139625,-9.227642,-35.98054,-7.708302,1008.111
2.960484505,1.230128,0.3854016,-0.9975403,0.04583025,0.9666184,-0.2163804,-9.227642,-35.98054,-7.708302,1008.111
2.965508461,1.044848,0.3854016,-0.6922134,0.0477075,0.9719996,-0.2167919,-9.227642,-35.98054,-7.708302,1008.111
2.970533371,0.9830876,0.445602,-0.9975403,0.05358716,0.9661621,-0.2135174,-9.227642,-35.98054,-7.708302,1008.111
2.975557804,1.044848,0.2048005,-0.631148,0.05308937,0.9671806,-0.2202087,-9.227642,-35.98054,-7.708302,1008.111
2.980582237,1.168368,0.3252012,-0.8754095,0.04876383,0.9642022,-0.2168918,-9.227642,-35.98054,-7.708302,1008.111
2.985607147,1.230128,0.5058023,-0.6922134,0.04874037,0.9661829,-0.2211767,-9.227642,-35.98054,-7.708302,1008.111
2.990631580,1.291888,0.6864034,-0.6922134,0.05116393,0.9661692,-0.2168682,-9.227642,-35.98054,-7.708302,1008.111
2.995655537,1.291888,0.8068041,-0.8143441,0.04733321,0.9622284,-0.2150005,-9.595762,-36.35411,-7.711388,1008.111
3.000682831,1.168368,0.6864034,-0.631148,0.04726564,0.9681176,-0.2201934,-9.595762,-36.35411,-7.711388,1008.111
3.128805637,1.600688,-0.3370027,-0.02049401,0.05409007,0.9646624,-0.20779,-9.597063,-36.35369,-7.256669,1008.108
3.131314278,1.724208,-0.216602,0.1627022,0.054596,0.9627213,-0.2087728,-9.597063,-36.35369,-7.256669,1008.108
3.136338711,1.847728,0.08439979,0.2237676,0.05698907,0.9652057,-0.2130527,-9.597063,-36.35369,-7.256669,1008.108
3.141362667,1.785968,-0.03600093,0.1627022,0.05503646,0.9666297,-0.2092022,-9.597063,-36.35369,-7.256669,1008.108
3.146387100,1.724208,-0.09620129,0.4680291,0.05308652,0.9676188,-0.2130196,-9.602139,-35.61407,-7.709326,1008.108
3.151412010,2.033009,-0.03600093,0.2237676,0.05406096,0.9671341,-0.2125475,-9.602139,-35.61407,-7.709326,1008.108
3.156436443,1.971248,0.02419943,0.284833,0.0492129,0.9675635,-0.2087079,-9.602139,-35.61407,-7.709326,1008.108
3.161461353,2.033009,0.08439979,0.3458984,0.05213024,0.9666072,-0.2087218,-9.602139,-35.61407,-7.709326,1008.108
3.166485786,2.341809,0.2048005,0.4680291,0.04969201,0.9680511,-0.2082231,-9.602139,-35.61407,-7.709326,1008.108
3.171509743,2.527089,-0.1564016,0.5290945,0.04289808,0.9690082,-0.2120381,-9.602139,-35.61407,-7.709326,1008.108
3.176534653,2.403569,0.08439979,0.7122907,0.04823054,0.968582,-0.2158779,-9.602139,-35.61407,-7.709326,1008.108
3.181559086,2.465329,-0.03600093,0.8954869,0.04285821,0.9724521,-0.2163043,-9.602139,-35.61407,-7.709326,1008.108
3.186584473,2.465329,-0.09620129,0.7733561,0.04866409,0.97339,-0.205281,-9.602139,-35.61407,-7.709326,1008.108
3.191608429,2.527089,-0.1564016,0.8344215,0.04434156,0.9699702,-0.2086744,-9.602139,-35.61407,-7.709326,1008.108
3.196632385,2.156528,-0.09620129,0.7733561,0.05069293,0.9651443,-0.2101763,-9.598177,-36.35332,-6.86691,1008.108
3.304659367,0.3037271,-0.4574034,1.078683,0.04918927,0.9695475,-0.2134717,-9.601366,-35.9833,-6.865879,1008.104
3.307172299,0.3037271,-0.3972031,1.261879,0.04774189,0.9690436,-0.2125194,-9.601366,-35.9833,-6.865879,1008.104
3.312196255,0.3037271,-0.6982049,1.200814,0.04727658,0.9671421,-0.2202058,-9.601366,-35.9833,-6.865879,1008.104
3.317220688,0.6742874,-0.7584053,1.078683,0.04340261,0.9670934,-0.2168518,-9.601366,-35.9833,-6.865879,1008.107
3.322245598,0.6125274,-0.5778042,0.9565524,0.04627001,0.97054,-0.2187252,-9.601366,-35.9833,-6.865879,1008.107
3.327270031,0.7360474,-0.5778042,0.9565524,0.05068129,0.9661329,-0.2120793,-9.601366,-35.9833,-6.865879,1008.107
3.332290649,0.6742874,-0.5176038,0.8954869,0.04675476,0.9705366,-0.2177677,-9.601366,-35.9833,-6.865879,1008.107
3.337315559,0.7978075,-0.4574034,0.8954869,0.04728997,0.9661205,-0.2135142,-9.601366,-35.9833,-6.865879,1008.107
3.342342854,0.3654872,-0.1564016,0.9565524,0.05302757,0.9729608,-0.2095992,-9.226868,-36.34977,-6.864855,1008.107
3.347363949,0.7360474,-0.1564016,1.017618,0.05065026,0.9686409,-0.2221043,-9.226868,-36.34977,-6.864855,1008.107
3.352388382,0.3037271,-0.09620129,0.9565524,0.05262029,0.9661193,-0.2082494,-9.226868,-36.34977,-6.864855,1008.107
3.357413292,-0.005073093,-0.03600093,0.8954869,0.0476983,0.9729421,-0.2119908,-9.226868,-36.34977,-6.864855,1008.107
3.362437725,-0.3756334,-0.03600093,0.7733561,0.04288749,0.9699771,-0.211068,-9.226868,-36.34977,-6.864855,1008.107
3.367462635,-0.4991535,-0.1564016,0.8344215,0.04049197,0.967539,-0.2134921,-9.226868,-36.34977,-6.864855,1008.107
3.372486591,-0.3138733,-0.216602,0.6512253,0.04091957,0.9724591,-0.2191765,-9.226868,-36.34977,-6.864855,1008.107
3.377511025,-0.1903532,-0.09620129,0.59016,0.04427946,0.9753716,-0.2138734,-9.226868,-36.34977,-6.864855,1008.107
3.485538483,-0.7461936,-0.7584053,0.4069638,0.04728025,0.9670728,-0.2101497,-9.22368,-36.7198,-6.865886,1008.107
3.488050461,-0.8079537,-0.5176038,0.3458984,0.04920056,0.9685653,-0.2125264,-9.225754,-36.35014,-7.254614,1008.107
3.490562916,-0.7461936,-0.5176038,0.4680291,0.05455526,0.9661817,-0.2154333,-9.225754,-36.35014,-7.254614,1008.107
3.498099804,-0.6226736,-0.5778042,0.284833,0.04922989,0.9657049,-0.2221409,-9.225754,-36.35014,-7.254614,1008.107
3.500611782,-0.6226736,-0.6380045,0.4069638,0.04830113,0.9622514,-0.2173953,-9.225754,-36.35014,-7.254614,1008.107
3.505638123,-0.2521133,-0.6982049,0.2237676,0.04875113,0.9652107,-0.221668,-9.225754,-36.35014,-7.254614,1008.107
3.510660648,-0.06683315,-0.7584053,0.3458984,0.05013903,0.9710665,-0.2206364,-9.225754,-36.35014,-7.254614,1008.107
3.515685558,-0.1285932,-0.7584053,0.284833,0.04970847,0.9662025,-0.2230926,-9.225754,-36.35014,-7.254614,1008.107
3.520709992,-0.06683315,-0.5176038,0.3458984,0.05110464,0.9715178,-0.2144055,-9.225754,-36.35014,-7.254614,1008.109
3.525734902,-0.1903532,-0.4574034,0.3458984,0.05254922,0.9720746,-0.2230195,-9.225754,-36.35014,-7.254614,1008.109
3.530754566,-0.1903532,-0.3972031,0.3458984,0.04875131,0.9652074,-0.2211891,-9.225754,-36.35014,-7.254614,1008.109
3.535779476,-0.3756334,-0.4574034,0.3458984,0.04875039,0.9656093,-0.2087326,-9.598951,-35.98409,-7.710357,1008.109
3.540803909,-0.3756334,-0.2768023,0.4069638,0.04728363,0.9666247,-0.2159023,-9.598951,-35.98409,-7.710357,1008.109
3.545828819,-0.4991535,-0.4574034,0.2237676,0.04529574,0.9710214,-0.2187185,-9.598951,-35.98409,-7.710357,1008.109
3.550853253,-0.7461936,-0.4574034,0.1016368,0.04533084,0.968052,-0.2125306,-9.598951,-35.98409,-7.710357,1008.109
3.555881977,-0.9314737,-0.3972031,-0.02049401,0.04576885,0.9720066,-0.219664,-9.598951,-35.98409,-7.710357,1008.109
3.666417122,-0.3756334,0.08439979,-0.5090172,0.05357977,0.9666861,-0.2187786,-8.856331,-35.97699,-7.706246,1008.109
3.668929100,-0.4991535,0.2650009,-0.4479518,0.05450143,0.9710426,-0.2129768,-8.856331,-35.97699,-7.706246,1008.109
3.673953533,-0.1903532,0.2048005,-0.3868864,0.05113041,0.9691089,-0.2187463,-8.856331,-35.97699,-7.706246,1008.109
3.676465511,-0.1903532,-0.216602,-0.2036902,0.04968304,0.9686049,-0.2177941,-8.856331,-35.97699,-7.706246,1008.109
3.681490421,-0.005073093,-0.09620129,-0.3868864,0.04917886,0.970513,-0.2120226,-8.856331,-35.97699,-7.706246,1008.107
3.686514855,-0.06683315,-0.03600093,-0.2036902,0.04537955,0.9636722,-0.2140232,-9.225567,-36.3502,-7.319574,1008.107
3.691539765,-0.1903532,0.08439979,-0.2036902,0.0389509,0.9753397,-0.2143496,-9.225567,-36.3502,-7.319574,1008.107
3.696564198,-0.2521133,-0.216602,-0.4479518,0.0516434,0.9666502,-0.2154256,-9.225567,-36.3502,-7.319574,1008.107
3.701589108,-0.4373934,-0.216602,-0.5700825,0.04481629,0.9705403,-0.2201611,-9.225567,-36.3502,-7.319574,1008.107
3.706613064,-0.1285932,-0.3972031,-0.4479518,0.05018792,0.9666835,-0.2216501,-9.225567,-36.3502,-7.319574,1008.107
3.711637974,-0.1903532,-0.216602,-0.4479518,0.04871901,0.9681239,-0.2197152,-9.225567,-36.3502,-7.319574,1008.107
3.716661930,0.118447,-0.3370027,-0.5700825,0.04579196,0.9700326,-0.2163369,-9.225567,-36.3502,-7.319574,1008.107
3.721686840,0.05668695,-0.4574034,-0.3868864,0.04878286,0.9626895,-0.2097276,-9.225567,-36.3502,-7.319574,1008.107
3.726711273,0.2419671,-0.1564016,-0.4479518,0.04970312,0.9670723,-0.2077567,-9.225567,-36.3502,-7.319574,1008.107
3.731731892,-0.1903532,-0.3370027,-0.325821,0.05551556,0.9671173,-0.2087173,-9.225567,-36.3502,-7.319574,1008.107
3.736755848,-0.5609135,-0.03600093,-0.2036902,0.05259666,0.9681033,-0.2130132,-9.222567,-36.72016,-7.255645,1008.107
3.847295761,-0.1285932,0.2650009,-0.2036902,0.04822932,0.9686052,-0.2192299,-8.853142,-36.34702,-7.707277,1008.109
3.852319717,-0.005073093,-0.1564016,0.1016368,0.04868426,0.9710867,-0.2249454,-8.853142,-36.34702,-7.707277,1008.109
3.857344627,-0.1903532,-0.09620129,-0.02049401,0.05070619,0.9637405,-0.2188145,-8.853142,-36.34702,-7.707277,1008.109
3.862370014,-0.1285932,-0.2768023,-0.0815594,0.0477377,0.9691228,-0.224012,-8.853142,-36.34702,-7.707277,1008.109
3.867393970,0.05668695,-0.2768023,-0.0815594,0.04919899,0.968595,-0.2168361,-8.853142,-36.34702,-7.707277,1008.109
3.872418404,0.05668695,-0.216602,0.04057138,0.04972238,0.9651709,-0.2149644,-8.853142,-36.34702,-7.707277,1008.109
3.877442360,-0.005073093,-0.4574034,0.04057138,0.05165381,0.9656846,-0.2168746,-8.853142,-36.34702,-7.707277,1008.109
3.882466793,0.05668695,-0.3972031,0.04057138,0.05025019,0.9612787,-0.2159722,-9.967073,-36.35766,-7.713443,1008.109
3.887491703,0.05668695,-0.2768023,-0.02049401,0.05017238,0.9681302,-0.2192371,-9.967073,-36.35766,-7.713443,1008.11
3.892516136,0.05668695,-0.3972031,0.04057138,0.04777244,0.96616,-0.2187819,-9.967073,-36.35766,-7.713443,1008.11
3.897541046,-0.005073093,-0.3972031,0.2237676,0.04917094,0.971047,-0.2187205,-9.967073,-36.35766,-7.713443,1008.11
3.902565479,-0.005073093,-0.3972031,0.1627022,0.05404175,0.9686502,-0.2201906,-9.967073,-36.35766,-7.713443,1008.11
3.907589436,-0.005073093,-0.2768023,0.1016368,0.05213326,0.9661657,-0.2154321,-9.967073,-36.35766,-7.713443,1008.11
3.912614346,-0.1285932,-0.4574034,0.1627022,0.04874142,0.966163,-0.2183035,-9.967073,-36.35766,-7.713443,1008.11
3.917638779,-0.1903532,-0.216602,0.1627022,0.05259473,0.9681396,-0.2182806,-9.967073,-36.35766,-7.713443,1008.11
3.922663212,-0.1903532,-0.3370027,0.284833,0.05310735,0.9656876,-0.2159177,-9.967073,-36.35766,-7.713443,1008.11
4.030690670,1.415408,-0.2768023,0.3458984,0.05018914,0.9666604,-0.2182981,-9.600252,-35.98367,-7.255638,1008.111
4.033198833,1.415408,-0.3370027,0.3458984,0.05067424,0.9666504,-0.2163829,-9.600252,-35.98367,-7.255638,1008.111
4.038223267,1.662448,-0.216602,0.3458984,0.04629614,0.9681244,-0.2221083,-9.600252,-35.98367,-7.255638,1008.111
4.040735245,1.662448,-0.2768023,0.3458984,0.048704,0.9695607,-0.2158657,-9.600252,-35.98367,-7.255638,1008.111
4.045759678,1.847728,-0.4574034,0.4069638,0.05120241,0.9627517,-0.2164328,-9.600252,-35.98367,-7.255638,1008.111
4.050784588,1.785968,-0.3370027,0.284833,0.04678496,0.9676598,-0.2249879,-9.600252,-35.98367,-7.255638,1008.109
4.055809021,1.724208,-0.09620129,0.4680291,0.04583856,0.9656924,-0.2235757,-9.600252,-35.98367,-7.255638,1008.109
4.060833931,1.538928,0.02419943,0.4680291,0.05315501,0.9613277,-0.2202834,-9.600252,-35.98367,-7.255638,1008.109
4.065858364,1.909488,-0.3370027,0.4069638,0.05068995,0.9652004,-0.218317,-9.600252,-35.98367,-7.255638,1008.109
4.070882320,2.033009,-0.2768023,0.6512253,0.05114454,0.9676886,-0.2249901,-9.600252,-35.98367,-7.255638,1008.109
4.075907230,2.033009,-0.3370027,0.5290945,0.04827855,0.9642156,-0.2192859,-9.600252,-35.98367,-7.255638,1008.109
4.080931664,2.033009,-0.3972031,0.59016,0.04922494,0.9661828,-0.2206981,-9.228943,-35.98012,-7.253583,1008.109
4.085956097,2.156528,-0.3972031,0.4680291,0.0506679,0.9671546,-0.218771,-9.228943,-35.98012,-7.253583,1008.109
4.090981007,2.280049,-0.216602,0.4680291,0.05262173,0.9657075,-0.2192694,-9.228943,-35.98012,-7.253583,1008.108
4.096004963,2.033009,-0.3972031,0.6512253,0.05016302,0.969076,-0.2149149,-9.228943,-35.98012,-7.253583,1008.108
4.206544876,1.291888,0.2650009,0.3458984,0.04634712,0.9637018,-0.2173757,-9.225754,-36.35014,-7.254614,1008.104
4.206544876,1.291888,0.2650009,0.3458984,0.04634712,0.9637018,-0.2173757,-9.225754,-36.35014,-7.254614,1008.104
4.211569309,1.353648,0.1446002,-0.0815594,0.04191484,0.9700433,-0.2216024,-9.225754,-36.35014,-7.254614,1008.103
4.216594219,1.477168,0.1446002,-0.02049401,0.04824997,0.9666774,-0.2226068,-9.225754,-36.35014,-7.254614,1008.103
4.221618176,1.600688,0.2048005,-0.0815594,0.04579817,0.9691463,-0.2292785,-9.225754,-36.35014,-7.254614,1008.103
4.226642609,1.415408,-0.216602,-0.2647556,0.04386425,0.9690641,-0.2192215,-9.599478,-36.3529,-6.412191,1008.103
4.231663227,1.168368,-0.2768023,-0.2647556,0.04536529,0.9647104,-0.2231091,-9.599478,-36.3529,-6.412191,1008.103
4.236688137,1.106608,-0.216602,-0.02049401,0.04922123,0.9666375,-0.2159033,-9.599478,-36.3529,-6.412191,1008.103
4.241712570,0.7978075,-0.03600093,-0.3868864,0.04631325,0.966648,-0.2202115,-9.599478,-36.3529,-6.412191,1008.103
4.246736527,0.7978075,-0.1564016,-0.1426248,0.04626047,0.9714891,-0.2148819,-9.599478,-36.3529,-6.412191,1008.103
4.251760960,0.7360474,-0.3370027,-0.2036902,0.05067936,0.9661693,-0.2173468,-9.599478,-36.3529,-6.412191,1008.103
4.256785870,0.3037271,-0.1564016,-0.2036902,0.04678351,0.9680715,-0.2139679,-9.599478,-36.3529,-6.412191,1008.103
4.261810303,0.2419671,-0.216602,-0.2036902,0.04823514,0.9681108,-0.2182784,-9.599478,-36.3529,-6.412191,1008.103
4.266835213,-0.06683315,-0.1564016,-0.2036902,0.04819737,0.9715151,-0.2167983,-9.599478,-36.3529,-6.412191,1008.103
4.271859646,-0.4373934,-0.216602,-0.325821,0.04875678,0.9647197,-0.2211953,-9.599478,-36.3529,-6.412191,1008.103
4.276883602,0.118447,-0.1564016,-0.2647556,0.04825369,0.9662226,-0.2274016,-9.225754,-36.35014,-7.254614,1008.103
4.392447472,0.3654872,0.02419943,-0.325821,0.04485301,0.9671558,-0.2245143,-9.228943,-35.98012,-7.253583,1008.104
4.394960404,0.05668695,0.2048005,-0.325821,0.04921807,0.9666969,-0.2245227,-9.228943,-35.98012,-7.253583,1008.104
4.397473335,0.2419671,0.08439979,-0.4479518,0.05020345,0.9652368,-0.224063,-9.228943,-35.98012,-7.253583,1008.104
4.402496815,0.05668695,0.1446002,-0.4479518,0.05022284,0.9637174,-0.2159411,-9.228943,-35.98012,-7.253583,1008.104
4.407521248,0.180207,-0.09620129,-0.5090172,0.04919952,0.9685851,-0.2153995,-9.228943,-35.98012,-7.253583,1008.104
4.412546158,0.118447,0.2048005,-0.5090172,0.05116218,0.9662022,-0.2216568,-9.228943,-35.98012,-7.253583,1008.104
4.417570114,0.118447,-0.09620129,-0.5090172,0.04870737,0.9691126,-0.2216182,-9.228943,-35.98012,-7.253583,1008.106
4.422599793,0.180207,0.1446002,-0.631148,0.04926219,0.9627884,-0.2236148,-8.86212,-35.60612,-6.795778,1008.106
4.427619457,0.180207,0.2048005,-0.5090172,0.05017396,0.9681005,-0.2149274,-8.86212,-35.60612,-6.795778,1008.106
4.432640076,0.2419671,0.08439979,-0.5700825,0.04581331,0.9680915,-0.2177983,-8.86212,-35.60612,-6.795778,1008.106
4.437664509,0.05668695,0.1446002,-0.4479518,0.04684583,0.9622813,-0.2231409,-8.86212,-35.60612,-6.795778,1008.106
4.442689419,0.3037271,0.2650009,-0.7532787,0.05073726,0.960847,-0.2236404,-8.86212,-35.60612,-6.795778,1008.106
4.447713375,0.2419671,0.3252012,-0.5700825,0.049181,0.970088,-0.2211272,-8.86212,-35.60612,-6.795778,1008.106
4.452737808,0.05668695,0.3252012,-0.5090172,0.04783564,0.9603533,-0.2255606,-8.86212,-35.60612,-6.795778,1008.106
4.457762241,0.2419671,-0.03600093,-0.631148,0.04775621,0.9676199,-0.2182844,-8.86212,-35.60612,-6.795778,1008.104
4.462787151,0.118447,-0.09620129,-0.3868864,0.04871267,0.9686281,-0.2221033,-8.86212,-35.60612,-6.795778,1008.104
4.467811585,0.3037271,-0.09620129,-0.4479518,0.0458264,0.966691,-0.2269153,-8.86212,-35.60612,-6.795778,1008.104
4.472836495,0.3037271,0.02419943,-0.325821,0.04538117,0.9632571,-0.2245643,-9.598177,-36.35332,-6.86691,1008.104
4.477860451,0.4890073,-0.09620129,-0.5090172,0.04775975,0.9671684,-0.2235581,-9.598177,-36.35332,-6.86691,1008.104
4.482884884,0.5507673,-0.2768023,-0.5090172,0.04587774,0.9622617,-0.221225,-9.598177,-36.35332,-6.86691,1008.104
4.487909794,0.8595675,-0.216602,-0.4479518,0.05022022,0.9637669,-0.223124,-9.598177,-36.35332,-6.86691,1008.104
4.492934227,0.6742874,0.1446002,-0.5090172,0.04871337,0.9686149,-0.2201879,-9.598177,-36.35332,-6.86691,1008.104
4.495446205,0.6742874,-0.03600093,-0.5700825,0.04486395,0.9661804,-0.2245267,-9.598177,-36.35332,-6.86691,1008.106
4.500470638,0.7360474,-0.3972031,-0.6922134,0.05063809,0.9696395,-0.2254439,-9.598177,-36.35332,-6.86691,1008.106
4.505495548,0.6742874,0.02419943,-0.5700825,0.04867542,0.9720225,-0.2191866,-9.598177,-36.35332,-6.86691,1008.106
4.510523319,0.3654872,-0.216602,-0.631148,0.04924223,0.964703,-0.2183225,-9.598177,-36.35332,-6.86691,1008.106
4.515544891,0.6125274,-0.03600093,-0.3868864,0.05256178,0.9706839,-0.233573,-9.598177,-36.35332,-6.86691,1008.106
4.520569325,0.6742874,0.02419943,-0.631148,0.04820656,0.9705727,-0.2215993,-9.601366,-35.9833,-6.865879,1008.106
4.525593281,0.6125274,0.02419943,-0.5700825,0.05022464,0.963299,-0.2260033,-9.601366,-35.9833,-6.865879,1008.106
4.530618191,0.6742874,0.1446002,-0.4479518,0.04774829,0.9681538,-0.2249822,-9.601366,-35.9833,-6.865879,1008.106
4.535642624,0.7978075,-0.03600093,-0.5090172,0.0496938,0.9676327,-0.2182854,-9.601366,-35.9833,-6.865879,1008.106
4.540667057,0.6125274,0.08439979,-0.5090172,0.04968536,0.9681765,-0.2264198,-9.601366,-35.9833,-6.865879,1008.106
4.545691967,0.4272472,0.02419943,-0.4479518,0.04777494,0.9657283,-0.2269287,-9.601366,-35.9833,-6.865879,1008.106
4.550715923,0.4890073,0.08439979,-0.2647556,0.05110043,0.971597,-0.2258981,-9.601366,-35.9833,-6.865879,1008.106
4.555740357,0.3037271,-0.09620129,-0.2036902,0.04776523,0.9666807,-0.2235643,-9.601366,-35.9833,-6.865879,1008.106
4.560765267,0.2419671,-0.03600093,-0.5090172,0.04678811,0.9676003,-0.2163685,-9.601366,-35.9833,-6.865879,1008.106
4.565789700,0.180207,-0.03600093,-0.2647556,0.04536016,0.9651915,-0.2221451,-9.601366,-35.9833,-6.865879,1008.106
4.570814133,0.3037271,-0.03600093,-0.5090172,0.04876278,0.964222,-0.219765,-9.968187,-36.3573,-7.323685,1008.106
4.575839043,0.118447,0.1446002,-0.2647556,0.04729176,0.965702,-0.2235765,-9.968187,-36.3573,-7.323685,1008.11
4.580862999,0.5507673,-0.09620129,-0.2036902,0.05065591,0.9681499,-0.2216317,-9.968187,-36.3573,-7.323685,1008.11
4.585887432,0.4272472,0.02419943,-0.4479518,0.05354292,0.9696884,-0.2297551,-9.968187,-36.3573,-7.323685,1008.11
4.590912819,0.4272472,-0.09620129,-0.325821,0.05116678,0.965731,-0.2240573,-9.968187,-36.3573,-7.323685,1008.11
4.595936775,0.3654872,-0.1564016,-0.4479518,0.05115706,0.9666833,-0.2206928,-9.968187,-36.3573,-7.323685,1008.11
4.600961685,0.2419671,-0.09620129,-0.3868864,0.05062995,0.9705622,-0.2177697,-9.968187,-36.3573,-7.323685,1008.11
4.605986118,-0.1903532,0.1446002,-0.325821,0.05453092,0.9681788,-0.2221125,-9.968187,-36.3573,-7.323685,1008.11
4.611010075,-0.06683315,0.5058023,-0.5090172,0.05258169,0.9691548,-0.2240145,-9.968187,-36.3573,-7.323685,1008.11
4.616034508,-0.1903532,0.2048005,-0.0815594,0.04824485,0.9671584,-0.2216429,-9.968187,-36.3573,-7.323685,1008.11
4.621059418,-0.2521133,0.445602,-0.3868864,0.05208599,0.9701336,-0.2249595,-9.225754,-36.35014,-7.254614,1008.11
4.626083851,-0.1903532,0.626203,-0.3868864,0.04968413,0.9681996,-0.2297718,-9.225754,-36.35014,-7.254614,1008.11
4.631104469,-0.3138733,0.6864034,-0.1426248,0.05068344,0.965708,-0.2211839,-9.225754,-36.35014,-7.254614,1008.11
4.636128426,-0.4373934,0.445602,-0.2647556,0.04970882,0.9661959,-0.2221349,-9.225754,-36.35014,-7.254614,1008.11
4.641153336,-0.6226736,0.5058023,-0.325821,0.04921803,0.9670823,-0.2096719,-9.225754,-36.35014,-7.254614,1008.11
4.646177769,-0.3138733,0.626203,-0.2647556,0.04779804,0.9637542,-0.2236016,-9.225754,-36.35014,-7.254614,1008.11
4.651202679,-0.5609135,0.626203,-0.2036902,0.04828525,0.9637046,-0.2159401,-9.225754,-36.35014,-7.254614,1008.11
4.656227112,-0.4991535,0.6864034,-0.1426248,0.04973757,0.9637308,-0.2183351,-9.225754,-36.35014,-7.254614,1008.11
4.661251545,-0.8697137,0.7466037,0.04057138,0.04483677,0.9686158,-0.2240168,-9.225754,-36.35014,-7.254614,1008.109
4.666275501,-0.7461936,0.626203,-0.0815594,0.04780159,0.9633029,-0.2288753,-9.225754,-36.35014,-7.254614,1008.109
4.671300411,-0.7461936,0.8670045,-0.325821,0.04200819,0.9617451,-0.2207504,-9.231358,-35.97933,-6.409105,1008.109
4.676327706,-0.9314737,0.5660027,-0.2036902,0.04345806,0.9618174,-0.2298494,-9.231358,-35.97933,-6.409105,1008.109
4.681349754,-0.4373934,0.3854016,-0.0815594,0.04338589,0.9681779,-0.2326417,-9.231358,-35.97933,-6.409105,1008.109
4.686374188,-0.2521133,0.02419943,-0.2036902,0.04491778,0.9613195,-0.2269832,-9.231358,-35.97933,-6.409105,1008.109
4.691399098,0.2419671,-0.216602,-0.02049401,0.04442879,0.9617875,-0.2245825,-9.231358,-35.97933,-6.409105,1008.109
4.696423054,0.2419671,-0.09620129,-0.2036902,0.04292193,0.9666355,-0.2216464,-9.231358,-35.97933,-6.409105,1008.109
4.701447487,0.3037271,-0.216602,-0.1426248,0.04536795,0.9642755,-0.230777,-9.231358,-35.97933,-6.409105,1008.109
4.706471920,-0.1285932,-0.3370027,-0.325821,0.05161324,0.9691417,-0.2230563,-9.231358,-35.97933,-6.409105,1008.109
4.711496830,-0.1903532,-0.09620129,-0.1426248,0.05209991,0.969102,-0.2168314,-9.231358,-35.97933,-6.409105,1008.109
4.716522217,-0.2521133,-0.03600093,-0.2036902,0.05217085,0.9627647,-0.217391,-9.600252,-35.98367,-7.255638,1008.109
4.721546173,-0.3138733,0.02419943,-0.2647556,0.05117702,0.9647686,-0.2259852,-9.600252,-35.98367,-7.255638,1008.109
4.726570130,-0.1903532,0.08439979,-0.0815594,0.04729829,0.9651945,-0.2207095,-9.600252,-35.98367,-7.255638,1008.109
4.731594563,0.118447,-0.03600093,-0.3868864,0.05023151,0.9627849,-0.2221787,-9.600252,-35.98367,-7.255638,1008.109
4.736619473,0.180207,0.08439979,-0.02049401,0.05067744,0.9662056,-0.2226143,-9.600252,-35.98367,-7.255638,1008.109
4.741644383,0.3654872,0.445602,-0.2036902,0.04874229,0.9661465,-0.2159092,-9.600252,-35.98367,-7.255638,1008.109
4.746668339,0.3654872,0.02419943,-0.3868864,0.04773415,0.9695742,-0.2187384,-9.600252,-35.98367,-7.255638,1008.109
4.751693249,0.118447,0.3252012,-0.0815594,0.04974711,0.9627817,-0.2221784,-9.600252,-35.98367,-7.255638,1008.109
4.756717205,0.05668695,-0.03600093,-0.325821,0.04675564,0.9705201,-0.2153734,-9.600252,-35.98367,-7.255638,1008.109
4.761741638,-0.06683315,0.08439979,-0.02049401,0.04671896,0.9735191,-0.225871,-9.600252,-35.98367,-7.255638,1008.109
4.766766548,0.118447,0.02419943,-0.02049401,0.04628839,0.968655,-0.2283273,-9.227055,-36.34971,-6.799895,1008.109
4.771792889,-0.06683315,-0.09620129,-0.02049401,0.04629649,0.9681178,-0.2211506,-9.227055,-36.34971,-6.799895,1008.109
4.776815414,0.3037271,-0.09620129,0.1627022,0.04530988,0.969601,-0.2249623,-9.227055,-36.34971,-6.799895,1008.109
4.781933784,0.2419671,-0.216602,-0.02049401,0.04824118,0.9672278,-0.2316989,-9.227055,-36.34971,-6.799895,1008.109
4.786958218,0.118447,-0.5778042,0.1016368,0.04101082,0.9642006,-0.2240708,-9.227055,-36.34971,-6.799895,1008.109
4.791982174,0.6125274,-0.4574034,0.04057138,0.04484702,0.9676535,-0.2259447,-9.227055,-36.34971,-6.799895,1008.109
4.797006607,0.3654872,-0.5778042,-0.0815594,0.04825404,0.966216,-0.2264439,-9.227055,-36.34971,-6.799895,1008.109
4.802031517,0.4272472,-0.878806,0.1016368,0.04728629,0.9661897,-0.2235703,-9.227055,-36.34971,-6.799895,1008.109
4.807055950,0.3654872,-0.3972031,-0.0815594,0.05207098,0.9715704,-0.22111,-9.227055,-36.34971,-6.799895,1008.109
4.812080860,0.2419671,-0.3972031,0.1016368,0.04968182,0.968628,-0.2211461,-9.227055,-36.34971,-6.799895,1008.109
4.817105293,-0.06683315,-0.3370027,0.04057138,0.04972436,0.9647492,-0.2245478,-9.230057,-35.97975,-6.863824,1008.109
4.822129250,-0.1285932,-0.3370027,-0.0815594,0.0526048,0.9671806,-0.2206874,-9.230057,-35.97975,-6.863824,1008.107
4.827154160,-0.3138733,-0.5176038,0.04057138,0.05118971,0.9637602,-0.221209,-9.230057,-35.97975,-6.863824,1008.107
4.832174778,-0.06683315,-0.1564016,0.1016368,0.05312236,0.9642509,-0.2197672,-9.230057,-35.97975,-6.863824,1008.107
4.837199211,0.05668695,-0.03600093,-0.02049401,0.05172283,0.9593837,-0.2227018,-9.230057,-35.97975,-6.863824,1008.107
4.842223644,-0.005073093,-0.09620129,-0.2036902,0.04825457,0.9662061,-0.2250073,-9.230057,-35.97975,-6.863824,1008.107
4.847248554,0.180207,0.08439979,0.04057138,0.04925549,0.9632992,-0.2269606,-9.230057,-35.97975,-6.863824,1008.107
4.852272510,0.3037271,0.08439979,0.1016368,0.0497219,0.9647954,-0.2312519,-9.230057,-35.97975,-6.863824,1008.107
4.857296944,0.2419671,0.1446002,0.2237676,0.05019746,0.9657344,-0.2254934,-9.230057,-35.97975,-6.863824,1008.107
4.862321854,0.5507673,-0.03600093,0.284833,0.04687161,0.9598724,-0.2274817,-9.230057,-35.97975,-6.863824,1008.107
4.867346287,0.5507673,-0.2768023,-0.02049401,0.04679165,0.9671488,-0.2216421,-9.604553,-35.61328,-6.864848,1008.107
4.872371197,0.7360474,-0.216602,-0.02049401,0.05554685,0.9638352,-0.2279153,-9.604553,-35.61328,-6.864848,1008.107
4.877395630,0.4890073,-0.09620129,-0.02049401,0.04681196,0.9652276,-0.2259768,-9.604553,-35.61328,-6.864848,1008.107
4.882420063,0.6742874,-0.09620129,-0.02049401,0.05067534,0.9662452,-0.2283606,-9.604553,-35.61328,-6.864848,1008.107
4.887444019,0.4890073,0.02419943,0.04057138,0.05360712,0.9642475,-0.2188097,-9.604553,-35.61328,-6.864848,1008.107
4.892468929,0.3654872,0.1446002,0.1016368,0.04970317,0.966687,-0.2226076,-9.604553,-35.61328,-6.864848,1008.107
4.897493362,0.3037271,0.2650009,0.1627022,0.05069949,0.9642513,-0.2221603,-9.604553,-35.61328,-6.864848,1008.107
4.902518272,0.2419671,0.2650009,0.1016368,0.04873245,0.9667168,-0.2278745,-9.604553,-35.61328,-6.864848,1008.111
4.907542706,0.3654872,0.3854016,0.284833,0.05023116,0.9627915,-0.2231364,-9.604553,-35.61328,-6.864848,1008.111
4.912566662,0.6742874,0.2650009,0.4680291,0.04778431,0.9647825,-0.2312509,-9.228943,-35.98012,-7.253583,1008.111
4.917591572,0.7360474,0.08439979,0.3458984,0.04584404,0.9652047,-0.223582,-9.228943,-35.98012,-7.253583,1008.111
4.922616005,0.7360474,-0.216602,0.3458984,0.04390964,0.964747,-0.2298124,-9.228943,-35.98012,-7.253583,1008.111
4.927640438,0.6742874,-0.2768023,0.3458984,0.04244003,0.9662006,-0.229793,-9.228943,-35.98012,-7.253583,1008.111
4.932665348,0.6742874,-0.3370027,0.284833,0.04832958,0.9594075,-0.2294041,-9.228943,-35.98012,-7.253583,1008.111
4.937689781,0.7978075,-0.4574034,0.6512253,0.04777104,0.9661864,-0.2226128,-9.228943,-35.98012,-7.253583,1008.111
4.942713737,0.9213276,-0.4574034,0.284833,0.04727925,0.9667072,-0.2278738,-9.228943,-35.98012,-7.253583,1008.111
4.947738647,0.8595675,-0.2768023,0.284833,0.04829921,0.9622877,-0.2226628,-9.228943,-35.98012,-7.253583,1008.111
4.952763081,0.6125274,-0.3972031,0.3458984,0.05073709,0.9608504,-0.2241192,-9.228943,-35.98012,-7.253583,1008.111
4.957787514,0.6125274,-0.216602,0.284833,0.04828122,0.9637806,-0.2269538,-9.228943,-35.98012,-7.253583,1008.111
4.962812424,0.8595675,-0.1564016,0.2237676,0.05063652,0.9696692,-0.2297536,-8.858932,-35.97614,-6.796809,1008.111
4.967836857,0.9213276,-0.09620129,0.1016368,0.04931549,0.9579374,-0.2275078,-8.858932,-35.97614,-6.796809,1008.111
4.972860813,1.044848,-0.2768023,0.2237676,0.04874426,0.9657248,-0.2254926,-8.858932,-35.97614,-6.796809,1008.111
4.977885723,1.230128,-0.216602,0.284833,0.04926521,0.9623469,-0.230325,-8.858932,-35.97614,-6.796809,1008.111
4.982910156,1.353648,-0.3370027,0.3458984,0.04345806,0.9618174,-0.2298494,-8.858932,-35.97614,-6.796809,1008.109
4.987935066,1.353648,-0.3370027,0.4680291,0.04539723,0.9618005,-0.2255407,-8.858932,-35.97614,-6.796809,1008.109
4.992959499,1.415408,-0.4574034,0.284833,0.05260782,0.9667391,-0.2273976,-8.858932,-35.97614,-6.796809,1008.109
4.997983456,1.415408,-0.216602,0.284833,0.04920643,0.9676856,-0.2264258,-8.858932,-35.97614,-6.796809,1008.109
5.003007889,0.9830876,-0.3972031,0.4069638,0.04876807,0.9637375,-0.2202501,-8.858932,-35.97614,-6.796809,1008.109
5.005520821,1.230128,-0.2768023,0.284833,0.04873472,0.9666739,-0.2216493,-8.858932,-35.97614,-6.796809,1008.109
5.010545254,1.168368,-0.4574034,0.2237676,0.0483091,0.961332,-0.2255484,-9.603439,-35.61364,-7.254607,1008.109
5.015569210,1.230128,-0.09620129,0.3458984,0.04779594,0.9637939,-0.2293479,-9.603439,-35.61364,-7.254607,1008.109
5.020594120,1.230128,-0.3370027,0.1627022,0.04539194,0.9622849,-0.2250556,-9.603439,-35.61364,-7.254607,1008.109
5.025618553,1.230128,-0.3370027,0.3458984,0.04390574,0.9652051,-0.2254964,-9.603439,-35.61364,-7.254607,1008.109
5.030639172,1.291888,-0.5778042,0.1016368,0.04296184,0.9628062,-0.2322311,-9.603439,-35.61364,-7.254607,1008.109
5.035664082,1.291888,-0.4574034,0.1627022,0.04584776,0.9647499,-0.2283768,-9.603439,-35.61364,-7.254607,1008.109
5.040688038,1.415408,-0.5778042,0.284833,0.0438941,0.9661937,-0.2273994,-9.603439,-35.61364,-7.254607,1008.109
5.045712471,1.477168,-0.5778042,0.2237676,0.04633973,0.9642259,-0.2226369,-9.603439,-35.61364,-7.254607,1008.109
5.050736904,1.724208,-0.6982049,0.284833,0.04587883,0.9618565,-0.2332027,-9.603439,-35.61364,-7.254607,1008.109
5.055761814,1.847728,-0.5778042,0.284833,0.04679944,0.9662328,-0.2302741,-9.603439,-35.61364,-7.254607,1008.109
5.060786247,1.785968,-0.7584053,0.3458984,0.05016254,0.9687004,-0.2312024,-8.854443,-36.34659,-7.252559,1008.109
5.065811157,1.847728,-0.7584053,0.3458984,0.04877866,0.9627687,-0.2212202,-8.854443,-36.34659,-7.252559,1008.109
5.070835590,2.094769,-0.6380045,0.284833,0.04582286,0.9671424,-0.2216416,-8.854443,-36.34659,-7.252559,1008.109
5.075859547,1.971248,-0.5778042,0.284833,0.05353495,0.9706078,-0.221602,-8.854443,-36.34659,-7.252559,1008.109
5.080884457,2.033009,-0.6380045,0.2237676,0.04871568,0.9681866,-0.2288136,-8.854443,-36.34659,-7.252559,1008.109
5.085908890,2.033009,-0.5176038,0.04057138,0.04529929,0.9705699,-0.2239922,-8.854443,-36.34659,-7.252559,1008.109
5.090933323,1.909488,-0.3972031,-0.02049401,0.05023453,0.9623433,-0.2288889,-8.854443,-36.34659,-7.252559,1008.109
5.095958233,1.847728,-0.3370027,0.2237676,0.05311142,0.9652263,-0.2197548,-8.854443,-36.34659,-7.252559,1008.109
5.100982189,1.847728,-0.1564016,-0.1426248,0.05019571,0.9657674,-0.230282,-8.854443,-36.34659,-7.252559,1008.109
5.106009960,2.033009,-0.3972031,-0.0815594,0.04624533,0.9725438,-0.2263621,-8.854443,-36.34659,-7.252559,1008.108
5.111031532,2.033009,-0.216602,0.04057138,0.04922656,0.9657676,-0.2312392,-9.233244,-35.60973,-6.862793,1008.108
5.116055965,1.662448,0.2048005,0.1016368,0.04777581,0.9657118,-0.2245344,-9.233244,-35.60973,-6.862793,1008.108
5.121080875,1.538928,-0.03600093,0.1016368,0.05067744,0.9662056,-0.2226143,-9.233244,-35.60973,-6.862793,1008.108
5.126105309,1.662448,0.08439979,0.2237676,0.0453743,0.9637712,-0.228389,-9.233244,-35.60973,-6.862793,1008.108
5.131129265,1.230128,0.02419943,0.1016368,0.04530865,0.9696241,-0.2283143,-9.233244,-35.60973,-6.862793,1008.108
5.136153698,1.538928,-0.09620129,0.04057138,0.04632458,0.9652805,-0.2341171,-9.233244,-35.60973,-6.862793,1008.108
5.141178608,1.600688,-0.03600093,-0.02049401,0.04779153,0.9642619,-0.2264685,-9.233244,-35.60973,-6.862793,1008.108
5.146203041,1.662448,-0.1564016,0.04057138,0.04247919,0.96277,-0.2274422,-9.233244,-35.60973,-6.862793,1008.108
5.151227951,1.600688,-0.3370027,-0.0815594,0.04339788,0.9671825,-0.229781,-9.233244,-35.60973,-6.862793,1008.108
5.156252384,1.600688,-0.3972031,-0.02049401,0.044859,0.9666582,-0.223084,-9.233244,-35.60973,-6.862793,1008.108
5.161276341,1.353648,-0.5778042,-0.02049401,0.04922284,0.9662224,-0.2264444,-9.599478,-36.3529,-6.412191,1008.108
5.166300774,1.415408,-0.5176038,-0.1426248,0.04582553,0.9667075,-0.2293096,-9.599478,-36.3529,-6.412191,1008.108
5.171325684,1.106608,-0.5176038,-0.0815594,0.04682378,0.9642357,-0.2235949,-9.599478,-36.3529,-6.412191,1008.108
5.176350117,1.106608,-0.5778042,-0.02049401,0.04775818,0.9671981,-0.2278678,-9.599478,-36.3529,-6.412191,1008.108
5.181375027,0.9213276,-0.4574034,-0.2036902,0.05013711,0.9711028,-0.2259039,-9.599478,-36.3529,-6.412191,1008.108
5.186399460,1.044848,-0.6982049,-0.0815594,0.04537767,0.9633231,-0.2341415,-9.599478,-36.3529,-6.412191,1008.106
5.191423416,0.8595675,-0.3972031,-0.0815594,0.04868531,0.9710668,-0.2220722,-9.599478,-36.3529,-6.412191,1008.106
5.196448803,1.044848,-0.3370027,-0.2036902,0.04635422,0.962799,-0.227923,-9.599478,-36.3529,-6.412191,1008.106
5.201472759,1.106608,-0.3972031,-0.02049401,0.04923238,0.9652733,-0.2302877,-9.599478,-36.3529,-6.412191,1008.106
5.206497192,0.9830876,-0.2768023,-0.02049401,0.04584229,0.9652377,-0.2283705,-9.599478,-36.3529,-6.412191,1008.106
5.211522102,1.168368,-0.1564016,-0.1426248,0.04586417,0.9632867,-0.2283954,-9.225754,-36.35014,-7.254614,1008.106
5.216546536,1.415408,-0.3370027,-0.2036902,0.04731242,0.9637741,-0.2269534,-9.225754,-36.35014,-7.254614,1008.106
5.221570492,1.538928,-0.03600093,-0.2036902,0.04826481,0.9652438,-0.2269352,-9.225754,-36.35014,-7.254614,1008.106
5.226597309,1.477168,-0.4574034,-0.0815594,0.04587953,0.9618433,-0.2312872,-9.225754,-36.35014,-7.254614,1008.106
5.231616020,1.415408,-0.2768023,-0.325821,0.0482768,0.9642486,-0.2240745,-9.225754,-36.35014,-7.254614,1008.106
5.236640453,1.477168,-0.3370027,-0.0815594,0.05018476,0.9667429,-0.2302696,-9.225754,-36.35014,-7.254614,1008.106
5.241669655,1.291888,-0.3972031,-0.0815594,0.04434905,0.9686753,-0.2331149,-9.225754,-36.35014,-7.254614,1008.106
5.246689797,1.353648,-0.3370027,-0.2647556,0.04588658,0.9613259,-0.2269837,-9.225754,-36.35014,-7.254614,1008.106
5.251713753,1.044848,-0.3370027,-0.325821,0.04726354,0.9681572,-0.2259397,-9.225754,-36.35014,-7.254614,1008.106
5.256738186,1.044848,-0.1564016,-0.1426248,0.05021229,0.9643009,-0.2298218,-9.231358,-35.97933,-6.409105,1008.106
5.261763096,0.9213276,-0.09620129,-0.2647556,0.04873175,0.96673,-0.22979,-9.231358,-35.97933,-6.409105,1008.106
5.266787529,0.9213276,-0.1564016,-0.2647556,0.04631609,0.9662098,-0.2274006,-9.231358,-35.97933,-6.409105,1008.106
5.271812439,1.106608,-0.216602,-0.4479518,0.05262935,0.9647948,-0.2283802,-9.231358,-35.97933,-6.409105,1008.106
5.276836395,0.9213276,-0.216602,-0.2036902,0.04631662,0.9661999,-0.2259641,-9.231358,-35.97933,-6.409105,1008.106
5.281864166,0.9830876,-0.216602,-0.2647556,0.04489485,0.9632902,-0.2298315,-9.231358,-35.97933,-6.409105,1008.106
5.286885738,1.044848,-0.03600093,-0.2036902,0.04976549,0.9608968,-0.2317805,-9.231358,-35.97933,-6.409105,1008.106
5.291910172,0.9213276,-0.1564016,-0.2036902,0.0434455,0.963208,-0.2192959,-9.231358,-35.97933,-6.409105,1008.106
5.296934605,0.9213276,-0.2768023,-0.2036902,0.04873582,0.9662687,-0.233627,-9.231358,-35.97933,-6.409105,1008.106
5.301959515,0.6742874,-0.216602,-0.2036902,0.04578933,0.970082,-0.2235198,-9.231358,-35.97933,-6.409105,1008.106
5.306983471,0.7360474,-0.09620129,-0.325821,0.04826976,0.964766,-0.228378,-8.487436,-35.97266,-6.859714,1008.106
5.312007904,0.4890073,-0.2768023,-0.325821,0.04680544,0.9657352,-0.2288437,-8.487436,-35.97266,-6.859714,1008.104
5.317032814,0.6742874,-0.03600093,-0.2036902,0.04778396,0.9647892,-0.2322086,-8.487436,-35.97266,-6.859714,1008.104
5.322057247,0.7360474,-0.03600093,-0.3868864,0.05069,0.964815,-0.2331678,-8.487436,-35.97266,-6.859714,1008.104
5.327082157,0.6742874,-0.03600093,-0.2036902,0.0496935,0.9672539,-0.2340939,-8.487436,-35.97266,-6.859714,1008.104
5.332106590,0.9830876,-0.2768023,-0.2647556,0.0492165,0.9667267,-0.2288325,-8.487436,-35.97266,-6.859714,1008.104
5.337130547,0.8595675,-0.1564016,-0.1426248,0.0472466,0.9696303,-0.2273576,-8.487436,-35.97266,-6.859714,1008.104
5.342154980,0.7360474,0.1446002,-0.2647556,0.04778588,0.9647529,-0.2269412,-8.487436,-35.97266,-6.859714,1008.104
5.347179890,0.6125274,0.1446002,-0.02049401,0.04778658,0.9647397,-0.2250257,-8.487436,-35.97266,-6.859714,1008.104
5.352204323,0.4890073,0.02419943,-0.0815594,0.04389957,0.965706,-0.2274056,-8.487436,-35.97266,-6.859714,1008.103
5.357229233,0.4272472,0.2048005,-0.325821,0.04437762,0.9662135,-0.229794,-9.226868,-36.34977,-6.864855,1008.103
5.362253666,0.180207,0.1446002,-0.0815594,0.04243263,0.9667247,-0.2350542,-9.226868,-36.34977,-6.864855,1008.103
5.367277622,0.2419671,0.2048005,-0.1426248,0.04680282,0.9657847,-0.2360266,-9.226868,-36.34977,-6.864855,1008.103
5.372302055,0.2419671,-0.03600093,-0.1426248,0.04290854,0.9676572,-0.228338,-9.226868,-36.34977,-6.864855,1008.103
5.377326965,0.118447,0.02419943,-0.2036902,0.04482373,0.9696308,-0.2297507,-9.226868,-36.34977,-6.864855,1008.103
5.382351399,0.180207,-0.216602,-0.02049401,0.05164239,0.9662846,-0.2331496,-9.226868,-36.34977,-6.864855,1008.103
5.387376309,0.180207,-0.09620129,-0.0815594,0.04820516,0.9705991,-0.2254302,-9.226868,-36.34977,-6.864855,1008.103
5.392402649,0.05668695,-0.216602,-0.02049401,0.04728419,0.9662294,-0.2293166,-9.226868,-36.34977,-6.864855,1008.107
5.397424698,-0.1285932,-0.5176038,-0.1426248,0.04971376,0.965718,-0.2235777,-9.226868,-36.34977,-6.864855,1008.107
5.402449608,-0.06683315,-0.3370027,-0.0815594,0.04967919,0.9686775,-0.228329,-9.226868,-36.34977,-6.864855,1008.107
5.407475948,-0.3138733,-0.2768023,-0.1426248,0.05106708,0.9745333,-0.2272974,-9.598177,-36.35332,-6.86691,1008.107
5.412498474,-0.4373934,-0.3972031,-0.02049401,0.05014682,0.9701505,-0.2292683,-9.598177,-36.35332,-6.86691,1008.107
5.417523384,-0.7461936,-0.5778042,0.2237676,0.04630993,0.9667107,-0.2293099,-9.598177,-36.35332,-6.86691,1008.107
5.422547817,-0.8697137,-0.5778042,-0.02049401,0.05112214,0.9696494,-0.2264019,-9.598177,-36.35332,-6.86691,1008.107
5.427571774,-0.8697137,-0.6380045,0.1016368,0.04691805,0.9555355,-0.2351994,-9.598177,-36.35332,-6.86691,1008.107
5.432592392,-0.8697137,-0.6380045,0.1627022,0.05066404,0.9672272,-0.2293058,-9.598177,-36.35332,-6.86691,1008.107
5.437617302,-0.6226736,-0.5778042,0.04057138,0.05163145,0.96726,-0.2331372,-9.598177,-36.35332,-6.86691,1008.107
5.442641735,-0.6844336,-0.5778042,0.1016368,0.04870404,0.9691753,-0.2307166,-9.598177,-36.35332,-6.86691,1008.107
5.447666645,-0.7461936,-0.7584053,0.284833,0.05171455,0.9599242,-0.2303573,-9.598177,-36.35332,-6.86691,1008.107
5.452691078,-0.8079537,-0.3972031,0.3458984,0.05120791,0.9618785,-0.2312899,-9.598177,-36.35332,-6.86691,1008.107
5.457715035,-0.7461936,-0.5176038,0.1627022,0.05021847,0.9638,-0.2279126,-9.598364,-36.35326,-6.80195,1008.107
5.462739468,-0.3756334,-0.6380045,0.284833,0.04629404,0.968164,-0.2278546,-9.598364,-36.35326,-6.80195,1008.107
5.467766285,-0.9314737,-0.6982049,0.1627022,0.05353355,0.9706342,-0.2254329,-9.598364,-36.35326,-6.80195,1008.107
5.472788811,-0.9314737,-0.5778042,0.2237676,0.05305851,0.9696853,-0.2297549,-9.598364,-36.35326,-6.80195,1008.105
5.477813721,-1.302034,-0.5176038,0.1627022,0.045825,0.9667174,-0.2307462,-9.598364,-36.35326,-6.80195,1008.105
5.482837677,-1.363794,-0.4574034,0.284833,0.0497563,0.9618393,-0.2269795,-9.598364,-36.35326,-6.80195,1008.105
5.487862110,-1.549074,-0.4574034,0.1627022,0.05746292,0.9657924,-0.2269336,-9.598364,-36.35326,-6.80195,1008.105
5.492887020,-1.487314,-0.6380045,0.04057138,0.04825334,0.9662292,-0.2283593,-9.598364,-36.35326,-6.80195,1008.105
5.497911453,-1.425554,-0.5176038,0.1016368,0.05168086,0.9628671,-0.2327143,-9.598364,-36.35326,-6.80195,1008.105
5.502935887,-1.240274,-0.216602,0.1016368,0.04923098,0.9652997,-0.2341186,-9.602667,-35.98288,-6.41116,1008.105
5.507960796,-1.116754,-0.3370027,0.1627022,0.04578688,0.9701283,-0.2302238,-9.602667,-35.98288,-6.41116,1008.105
5.510475159,-1.363794,-0.2768023,0.4069638,0.04732848,0.9623175,-0.2279297,-9.602667,-35.98288,-6.41116,1008.105
5.515497208,-1.363794,-0.3972031,0.284833,0.04589187,0.9608414,-0.2274688,-9.602667,-35.98288,-6.41116,1008.105
5.520522118,-1.610834,-0.5778042,0.284833,0.04971008,0.9657874,-0.2336337,-9.602667,-35.98288,-6.41116,1008.105
5.525546551,-1.240274,-0.6380045,0.2237676,0.043403,0.9667014,-0.230745,-9.602667,-35.98288,-6.41116,1008.105
5.530570507,-1.610834,-0.3972031,0.284833,0.04976002,0.9613845,-0.2317743,-9.602667,-35.98288,-6.41116,1008.105
5.535595417,-1.610834,-0.5778042,0.284833,0.04635474,0.9627891,-0.2264865,-9.602667,-35.98288,-6.41116,1008.105
5.540619850,-1.734354,-0.5778042,0.4069638,0.04248554,0.9622657,-0.2250541,-9.602667,-35.98288,-6.41116,1008.105
5.545644283,-1.610834,-0.6380045,0.59016,0.05068593,0.9652763,-0.2293307,-9.602667,-35.98288,-6.41116,1008.105
5.550669193,-1.857875,-0.5176038,0.4069638,0.05116997,0.9652861,-0.2302887,-9.602667,-35.98288,-6.41116,1008.105
5.555693627,-1.610834,-0.5778042,0.4069638,0.04978225,0.959427,-0.2308414,-8.858932,-35.97614,-6.796809,1008.105
5.560717583,-1.610834,-0.6982049,0.284833,0.04929273,0.9599048,-0.2298772,-8.858932,-35.97614,-6.796809,1008.105
5.565742493,-1.240274,-0.4574034,0.3458984,0.05462659,0.9594524,-0.2298862,-8.858932,-35.97614,-6.796809,1008.105
5.570766926,-0.9932337,-0.3972031,0.4069638,0.05264716,0.9633051,-0.224568,-8.858932,-35.97614,-6.796809,1008.105
5.575791359,-0.6844336,-0.09620129,0.4069638,0.05169512,0.9618289,-0.2236284,-8.858932,-35.97614,-6.796809,1008.105
5.580816746,-0.8079537,-0.09620129,0.4069638,0.05456164,0.965292,-0.2278961,-8.858932,-35.97614,-6.796809,1008.105
5.585840225,-0.9314737,0.08439979,0.4069638,0.04732017,0.9632435,-0.2207344,-8.858932,-35.97614,-6.796809,1008.105
5.590864658,-1.178514,-0.09620129,0.5290945,0.04972295,0.9647756,-0.2283787,-8.858932,-35.97614,-6.796809,1008.105
5.595894337,-1.302034,-0.1564016,0.59016,0.0467945,0.9667107,-0.2288312,-8.858932,-35.97614,-6.796809,1008.105
5.600914002,-1.610834,-0.1564016,0.3458984,0.04676202,0.9696305,-0.2278362,-9.229469,-36.34892,-5.955418,1008.105
5.605938912,-1.549074,0.1446002,0.59016,0.04438118,0.965762,-0.2350676,-9.229469,-36.34892,-5.955418,1008.105
5.610963345,-1.487314,-0.09620129,0.5290945,0.0477896,0.9642982,-0.231736,-9.229469,-36.34892,-5.955418,1008.105
5.615987778,-1.302034,-0.3972031,0.4069638,0.04632989,0.9647961,-0.2346022,-9.229469,-36.34892,-5.955418,1008.105
5.621011734,-0.9932337,-0.4574034,0.59016,0.04834227,0.958399,-0.2246279,-9.229469,-36.34892,-5.955418,1008.105
5.626036644,-0.7461936,-0.09620129,0.59016,0.04533705,0.9671656,-0.2254723,-9.229469,-36.34892,-5.955418,1008.105
5.631061077,-0.5609135,-0.09620129,0.5290945,0.04779577,0.9637972,-0.2298268,-9.229469,-36.34892,-5.955418,1008.105
5.636081696,-0.9314737,0.02419943,0.59016,0.04592259,0.9579546,-0.2332524,-9.229469,-36.34892,-5.955418,1008.107
5.641108036,-1.240274,-0.03600093,0.7122907,0.04396911,0.9593952,-0.2317962,-9.229469,-36.34892,-5.955418,1008.107
5.646130562,-1.116754,0.1446002,0.4680291,0.04737492,0.9579808,-0.2356474,-9.229469,-36.34892,-5.955418,1008.107
5.651154995,-1.363794,-0.4574034,0.59016,0.0453761,0.9633528,-0.2384512,-9.599478,-36.3529,-6.412191,1008.107
5.656179905,-0.8697137,-0.6982049,0.7122907,0.04110386,0.9555235,-0.2390273,-9.599478,-36.3529,-6.412191,1008.107
5.661204338,-0.5609135,-0.878806,0.59016,0.04297441,0.9614156,-0.2427846,-9.599478,-36.3529,-6.412191,1008.107
5.666228771,-0.3756334,-0.9992067,0.7122907,0.04731899,0.9628812,-0.2389373,-9.599478,-36.3529,-6.412191,1008.107
5.671253681,0.118447,-1.059407,0.5290945,0.04583064,0.9662264,-0.2302736,-9.599478,-36.3529,-6.412191,1008.107
5.676277638,-0.005073093,-0.9992067,0.5290945,0.04831387,0.9608575,-0.22747,-9.599478,-36.3529,-6.412191,1008.107
5.681302071,0.180207,-0.878806,0.4680291,0.04682609,0.9638073,-0.2322206,-9.599478,-36.3529,-6.412191,1008.107
5.686326981,-0.005073093,-0.8186056,0.59016,0.05071188,0.962864,-0.2331927,-9.599478,-36.3529,-6.412191,1008.107
5.691351414,0.118447,-0.9992067,0.5290945,0.04486837,0.9657124,-0.2274061,-9.599478,-36.3529,-6.412191,1008.107
5.696376324,-0.005073093,-0.5778042,0.2237676,0.0502677,0.9594104,-0.2279685,-9.599478,-36.3529,-6.412191,1008.107
5.701400757,0.118447,-0.7584053,0.3458984,0.04588728,0.9613127,-0.2250683,-9.971563,-35.98721,-7.257693,1008.107
5.706424713,-0.1285932,-0.3972031,0.3458984,0.04731172,0.9637874,-0.2288688,-9.971563,-35.98721,-7.257693,1008.107
5.711449146,-0.3756334,-0.5176038,0.3458984,0.0458804,0.9618269,-0.2288929,-9.971563,-35.98721,-7.257693,1008.107
5.716474056,-0.1285932,-0.7584053,0.3458984,0.04588518,0.9613523,-0.2308146,-9.971563,-35.98721,-7.257693,1008.105
5.721498490,-0.3138733,-0.6380045,0.284833,0.04689599,0.9574898,-0.2356534,-9.971563,-35.98721,-7.257693,1008.105
5.726523400,-0.3138733,-0.8186056,0.284833,0.04107843,0.9579259,-0.2337288,-9.971563,-35.98721,-7.257693,1008.105
5.731552601,-0.1285932,-0.8186056,0.4680291,0.0487907,0.961388,-0.2332104,-9.971563,-35.98721,-7.257693,1008.105
5.736571789,0.05668695,-1.059407,0.4069638,0.04397813,0.958456,-0.2370761,-9.971563,-35.98721,-7.257693,1008.105
5.741596222,0.6125274,-1.420609,0.5290945,0.04104119,0.9613203,-0.2308121,-9.971563,-35.98721,-7.257693,1008.105
5.746621132,0.7978075,-1.300208,0.4069638,0.03912867,0.9589117,-0.2370674,-9.971563,-35.98721,-7.257693,1008.105
5.751645565,0.7978075,-1.480809,0.4680291,0.04780124,0.9633094,-0.229833,-9.601553,-35.98324,-6.80092,1008.105
5.756670475,0.9213276,-1.360409,0.4680291,0.0521617,0.9633217,-0.2274409,-9.601553,-35.98324,-6.80092,1008.105
5.761694908,0.7360474,-1.360409,0.4069638,0.04869363,0.9701409,-0.2292676,-9.601553,-35.98324,-6.80092,1008.105
5.766718865,0.5507673,-1.420609,0.3458984,0.04629351,0.9681739,-0.2292912,-9.601553,-35.98324,-6.80092,1008.105
5.771743774,0.4890073,-0.9992067,0.3458984,0.05404635,0.9681789,-0.2225911,-9.601553,-35.98324,-6.80092,1008.105
5.776768207,0.2419671,-1.360409,0.1627022,0.05405147,0.9676978,-0.223555,-9.601553,-35.98324,-6.80092,1008.105
5.782185078,0.2419671,-1.059407,0.1627022,0.05209129,0.9696491,-0.2254446,-9.601553,-35.98324,-6.80092,1008.105
5.787209511,-0.005073093,-1.059407,0.284833,0.04871267,0.9686281,-0.2221033,-9.601553,-35.98324,-6.80092,1008.105
5.792233944,-0.4373934,-0.6982049,0.3458984,0.0555465,0.9638418,-0.228873,-9.601553,-35.98324,-6.80092,1008.105
5.797258854,-0.3138733,-1.059407,0.1627022,0.05065433,0.9681796,-0.2259414,-9.601553,-35.98324,-6.80092,1008.105
5.802282810,-0.1285932,-1.059407,0.1627022,0.05212394,0.966726,-0.2259608,-9.968374,-36.35723,-7.258724,1008.109
5.807308197,-0.3756334,-0.9390063,0.2237676,0.05358668,0.9657865,-0.2298048,-9.968374,-36.35723,-7.258724,1008.109
5.812332153,0.05668695,-0.7584053,0.2237676,0.04976427,0.9609199,-0.2351325,-9.968374,-36.35723,-7.258724,1008.109
5.817356586,-0.06683315,-0.878806,0.2237676,0.05217387,0.9623231,-0.2241013,-9.968374,-36.35723,-7.258724,1008.109
5.822381020,-0.06683315,-0.7584053,0.2237676,0.05558375,0.9604474,-0.2317896,-9.968374,-36.35723,-7.258724,1008.109
5.827405930,-0.1285932,-0.7584053,0.2237676,0.05555762,0.962863,-0.2284065,-9.968374,-36.35723,-7.258724,1008.109
5.832429886,0.05668695,-0.6380045,0.1627022,0.05605366,0.9618776,-0.2265038,-9.968374,-36.35723,-7.258724,1008.109
5.837450504,-0.1903532,-0.3370027,0.4069638,0.05019781,0.9657278,-0.2245357,-9.968374,-36.35723,-7.258724,1008.109
5.842474937,-0.06683315,-0.2768023,0.4069638,0.04784133,0.9594769,-0.2399388,-9.968374,-36.35723,-7.258724,1008.109
5.847499847,-0.005073093,-0.4574034,0.284833,0.0497549,0.9618657,-0.2308103,-9.967602,-36.72647,-6.415277,1008.109
5.852524281,0.2419671,-0.216602,0.1627022,0.0453669,0.9642953,-0.2336502,-9.967602,-36.72647,-6.415277,1008.109
5.857549190,0.3037271,-0.4574034,0.1627022,0.04969967,0.9667529,-0.2321848,-9.967602,-36.72647,-6.415277,1008.109
5.862573147,0.4890073,-0.3370027,0.1016368,0.05217457,0.9623099,-0.2221859,-9.967602,-36.72647,-6.415277,1008.109
5.867597580,0.6125274,-0.3370027,0.04057138,0.04776417,0.9667006,-0.2264374,-9.967602,-36.72647,-6.415277,1008.109
5.872622013,0.5507673,-0.216602,0.1627022,0.05605471,0.9618577,-0.2236306,-9.967602,-36.72647,-6.415277,1008.109
5.877646923,0.4272472,0.2650009,0.04057138,0.04971289,0.9657345,-0.225972,-9.967602,-36.72647,-6.415277,1008.109
5.882673740,0.5507673,0.08439979,0.1627022,0.05309891,0.9662315,-0.2240521,-9.967602,-36.72647,-6.415277,1008.109
5.887696266,0.6125274,0.445602,0.3458984,0.05121956,0.9608899,-0.2293869,-9.967602,-36.72647,-6.415277,1008.109
5.892720222,0.8595675,0.2048005,0.4680291,0.04777726,0.9653,-0.2355544,-9.967602,-36.72647,-6.415277,1008.109
5.897744656,0.8595675,0.2650009,0.4680291,0.04826801,0.964799,-0.2331666,-9.230057,-35.97975,-6.863824,1008.109
5.902769566,0.7978075,-0.1564016,0.5290945,0.0453743,0.9637712,-0.228389,-9.230057,-35.97975,-6.863824,1008.109
5.907793999,1.044848,-0.09620129,0.3458984,0.0438927,0.9662201,-0.2312303,-9.230057,-35.97975,-6.863824,1008.109
5.912819862,1.044848,-0.3972031,0.3458984,0.0419267,0.9686659,-0.2340714,-9.230057,-35.97975,-6.863824,1008.109
5.917843342,1.168368,-0.5176038,0.3458984,0.0410253,0.9627736,-0.2293569,-9.230057,-35.97975,-6.863824,1008.109
5.922867298,1.415408,-0.8186056,0.2237676,0.04682802,0.963771,-0.2269531,-9.230057,-35.97975,-6.863824,1008.109
5.927891731,1.044848,-0.5176038,0.284833,0.0434037,0.9666883,-0.2288295,-9.230057,-35.97975,-6.863824,1008.109
5.932916641,1.230128,-0.3972031,0.1627022,0.04970742,0.9662223,-0.2259658,-9.230057,-35.97975,-6.863824,1008.109
5.937941074,0.8595675,-0.3370027,0.2237676,0.04875997,0.9642748,-0.2274267,-9.230057,-35.97975,-6.863824,1008.109
5.942965984,0.7978075,-0.2768023,0.1627022,0.04972436,0.9647492,-0.2245478,-9.230057,-35.97975,-6.863824,1008.109
5.947990417,0.9830876,-0.216602,0.1627022,0.0477264,0.9701048,-0.2249573,-9.601366,-35.9833,-6.865879,1008.109
5.953014374,0.7978075,-0.1564016,0.2237676,0.05165526,0.9652728,-0.2278946,-9.601366,-35.9833,-6.865879,1008.109
5.958038807,0.7978075,-0.09620129,0.04057138,0.04824962,0.9666839,-0.2235645,-9.601366,-35.9833,-6.865879,1008.109
5.963063717,0.5507673,-0.03600093,0.1016368,0.04823885,0.9676561,-0.2230732,-9.601366,-35.9833,-6.865879,1008.109
5.968088150,0.9830876,-0.09620129,-0.1426248,0.047818,0.9618397,-0.2288939,-9.601366,-35.9833,-6.865879,1008.109
5.973114014,0.7360474,-0.03600093,-0.1426248,0.04777599,0.9657086,-0.2240556,-9.601366,-35.9833,-6.865879,1008.109
5.978137016,1.044848,0.1446002,-0.1426248,0.04636038,0.9622979,-0.2260138,-9.601366,-35.9833,-6.865879,1008.109
5.983161449,1.106608,0.08439979,-0.0815594,0.04731807,0.9632831,-0.2264807,-9.601366,-35.9833,-6.865879,1008.109
5.988187313,1.291888,0.02419943,-0.0815594,0.0492119,0.9671978,-0.226432,-9.601366,-35.9833,-6.865879,1008.109
5.993210793,1.230128,-0.03600093,-0.0815594,0.04485778,0.9666814,-0.226436,-9.601366,-35.9833,-6.865879,1008.109
5.998235226,1.106608,-0.09620129,-0.1426248,0.04728805,0.9661568,-0.2187817,-9.600252,-35.98367,-7.255638,1008.109
6.005772114,0.8595675,0.02419943,-0.02049401,0.04627513,0.9700589,-0.2196891,-9.600252,-35.98367,-7.255638,1008.108
6.008284092,0.9213276,-0.09620129,-0.2647556,0.04681354,0.9651979,-0.221667,-9.600252,-35.98367,-7.255638,1008.108
6.013308525,0.7978075,-0.09620129,-0.2647556,0.0535129,0.9725621,-0.222056,-9.600252,-35.98367,-7.255638,1008.108
6.018333435,0.7360474,-0.1564016,-0.325821,0.04150423,0.9632645,-0.2293509,-9.600252,-35.98367,-7.255638,1008.108
6.023357868,0.6125274,-0.2768023,-0.2647556,0.04390272,0.9656466,-0.2187862,-9.600252,-35.98367,-7.255638,1008.108
6.025869846,0.5507673,-0.2768023,-0.4479518,0.04729001,0.965735,-0.2283651,-9.600252,-35.98367,-7.255638,1008.108
6.030894279,0.6125274,-0.3370027,-0.1426248,0.04486343,0.9661903,-0.2259633,-9.600252,-35.98367,-7.255638,1008.108
6.035915375,0.3654872,-0.2768023,-0.0815594,0.04680404,0.9657616,-0.2326746,-9.600252,-35.98367,-7.255638,1008.108
6.040939808,0.6742874,-0.216602,-0.3868864,0.04733658,0.9617803,-0.2207531,-9.600252,-35.98367,-7.255638,1008.108
6.045964241,0.7360474,-0.3370027,-0.325821,0.04871446,0.9682097,-0.2321656,-9.228168,-36.34935,-6.410136,1008.108
6.050989151,0.5507673,-0.1564016,-0.1426248,0.05406101,0.9667487,-0.2273984,-9.228168,-36.34935,-6.410136,1008.108
6.056013107,0.7978075,-0.3972031,-0.1426248,0.05217317,0.9623363,-0.2260168,-9.228168,-36.34935,-6.410136,1008.108
6.061040401,0.6742874,-0.3370027,-0.0815594,0.04678391,0.9676796,-0.2278611,-9.228168,-36.34935,-6.410136,1008.108
6.066062450,0.4890073,-0.3370027,-0.1426248,0.05216753,0.9628274,-0.2264894,-9.228168,-36.34935,-6.410136,1008.108
6.071086884,0.2419671,-0.3972031,-0.3868864,0.04965394,0.9710766,-0.2225516,-9.228168,-36.34935,-6.410136,1008.108
6.076111317,0.3037271,-0.1564016,-0.02049401,0.05073621,0.9608669,-0.2265135,-9.228168,-36.34935,-6.410136,1008.108
6.081136227,0.4272472,-0.09620129,-0.2647556,0.04632581,0.9652574,-0.2307651,-9.228168,-36.34935,-6.410136,1008.108
6.086160183,0.3654872,-0.2768023,-0.1426248,0.05408871,0.9643035,-0.2264717,-9.228168,-36.34935,-6.410136,1008.108
6.091184616,0.4890073,-0.3370027,-0.2036902,0.05120827,0.961872,-0.2303322,-9.228168,-36.34935,-6.410136,1008.108
6.096209526,0.5507673,-0.1564016,-0.1426248,0.05264716,0.9633051,-0.224568,-8.852369,-36.71625,-6.863831,1008.108
6.101233959,0.3654872,-0.03600093,-0.2647556,0.0487605,0.9642649,-0.2259902,-8.852369,-36.71625,-6.863831,1008.108
6.106258869,0.3654872,-0.09620129,-0.2036902,0.04681161,0.9652342,-0.2269345,-8.852369,-36.71625,-6.863831,1008.108
6.111283302,0.3037271,-0.1564016,-0.2036902,0.04629369,0.9681706,-0.2288124,-8.852369,-36.71625,-6.863831,1008.108
6.116307259,0.2419671,0.02419943,-0.3868864,0.05067004,0.9667296,-0.2278755,-8.852369,-36.71625,-6.863831,1008.108
6.121331692,0.3654872,-0.09620129,-0.325821,0.04387804,0.9676504,-0.2264231,-8.852369,-36.71625,-6.863831,1008.108
6.126356602,0.3654872,-0.1564016,-0.325821,0.04729746,0.9648256,-0.2379547,-8.852369,-36.71625,-6.863831,1008.112
6.131381035,0.2419671,-0.216602,-0.1426248,0.05260869,0.9667227,-0.2250033,-8.852369,-36.71625,-6.863831,1008.112
6.136405945,0.4272472,0.02419943,-0.1426248,0.05115002,0.9672008,-0.2249964,-8.852369,-36.71625,-6.863831,1008.112
6.141429901,0.4890073,-0.09620129,-0.2036902,0.05068238,0.9657277,-0.224057,-9.230057,-35.97975,-6.863824,1008.112
6.146454334,0.3654872,0.02419943,-0.1426248,0.04776947,0.9662161,-0.2269225,-9.230057,-35.97975,-6.863824,1008.112
6.151479244,0.2419671,0.02419943,-0.2647556,0.05261329,0.9662514,-0.2274038,-9.230057,-35.97975,-6.863824,1008.112
6.156503677,0.2419671,-0.03600093,-0.2036902,0.04833558,0.9589098,-0.2279738,-9.230057,-35.97975,-6.863824,1008.112
6.234383583,-0.1285932,-0.2768023,-0.02049401,0.048274,0.9643014,-0.2317362,-8.860046,-35.97578,-6.40705,1008.11
6.236891747,-0.1903532,-0.1564016,0.04057138,0.050717,0.9623829,-0.2341566,-8.860046,-35.97578,-6.40705,1008.11
6.241919518,-0.1285932,-0.2768023,-0.3868864,0.04632121,0.9657286,-0.2283646,-9.228168,-36.34935,-6.410136,1008.11
6.246941090,0.180207,-0.2768023,0.04057138,0.0477658,0.9662854,-0.2369785,-9.228168,-36.34935,-6.410136,1008.11
6.251965523,0.180207,-0.2768023,-0.2036902,0.04927422,0.9614077,-0.2356049,-9.228168,-36.34935,-6.410136,1008.11
6.256990433,0.118447,-0.1564016,-0.02049401,0.04825759,0.9657646,-0.2317176,-9.228168,-36.34935,-6.410136,1008.11
6.262014389,0.4890073,-0.09620129,-0.0815594,0.05021374,0.9638891,-0.2408417,-9.228168,-36.34935,-6.410136,1008.11
6.267038822,0.5507673,-0.09620129,-0.02049401,0.04920893,0.9672539,-0.2345726,-9.228168,-36.34935,-6.410136,1008.11
6.272063732,0.5507673,-0.03600093,-0.0815594,0.04775538,0.9672509,-0.2355296,-9.228168,-36.34935,-6.410136,1008.11
6.277088165,0.5507673,-0.216602,-0.1426248,0.04828652,0.9632961,-0.2274389,-9.228168,-36.34935,-6.410136,1008.11
6.282112598,0.3654872,-0.216602,-0.0815594,0.05063105,0.970157,-0.2297474,-9.228168,-36.34935,-6.410136,1008.11
6.287137508,0.3654872,-0.216602,-0.4479518,0.05026647,0.9594334,-0.2313205,-9.228168,-36.34935,-6.410136,1008.112
6.292161465,-0.06683315,-0.2768023,-0.325821,0.04821575,0.9696302,-0.2264004,-8.851255,-36.71661,-7.25359,1008.112
6.297190666,-0.2521133,-0.1564016,0.04057138,0.04874128,0.9657809,-0.2336332,-8.851255,-36.71661,-7.25359,1008.112
6.302210808,-0.1903532,-0.3972031,0.04057138,0.04780724,0.9628118,-0.2284026,-8.851255,-36.71661,-7.25359,1008.112
6.307235241,-0.3756334,-0.09620129,-0.1426248,0.04876387,0.9638168,-0.2317427,-8.851255,-36.71661,-7.25359,1008.112
6.312260151,-0.3756334,-0.3370027,-0.02049401,0.04632546,0.965264,-0.2317228,-8.851255,-36.71661,-7.25359,1008.112
6.317284584,-0.3756334,0.02419943,-0.325821,0.04634647,0.9633296,-0.234142,-8.851255,-36.71661,-7.25359,1008.112
6.322309971,-0.3138733,-0.1564016,0.1016368,0.0434406,0.9633005,-0.2327039,-8.851255,-36.71661,-7.25359,1008.112
6.327332974,-0.3138733,-0.1564016,-0.1426248,0.04780247,0.9632863,-0.226481,-8.851255,-36.71661,-7.25359,1008.11
6.332357884,-0.3756334,-0.3370027,0.1016368,0.04726533,0.9677388,-0.2360019,-8.851255,-36.71661,-7.25359,1008.11
6.337382317,-0.3138733,-0.2768023,-0.0815594,0.04731632,0.9633161,-0.2312693,-8.851255,-36.71661,-7.25359,1008.11
6.342407227,-0.3138733,-0.3370027,-0.0815594,0.0429562,0.9632972,-0.2327037,-9.599478,-36.3529,-6.412191,1008.11
6.347431660,-0.2521133,-0.2768023,-0.02049401,0.05162016,0.9682421,-0.2340825,-9.599478,-36.3529,-6.412191,1008.11
6.352455616,-0.1903532,-0.216602,0.04057138,0.05169127,0.9619015,-0.2341633,-9.599478,-36.3529,-6.412191,1008.11
6.357480526,-0.3138733,-0.216602,0.04057138,0.04534712,0.9662067,-0.227879,-9.599478,-36.3529,-6.412191,1008.11
6.362504959,-0.4373934,-0.03600093,-0.0815594,0.04627797,0.9696206,-0.2268783,-9.599478,-36.3529,-6.412191,1008.11
6.367529392,-0.5609135,-0.1564016,-0.0815594,0.05067836,0.9658036,-0.2350708,-9.599478,-36.3529,-6.412191,1008.109
6.372554302,-0.6226736,0.1446002,0.1016368,0.0497602,0.9613812,-0.2312954,-9.599478,-36.3529,-6.412191,1008.109
6.377578735,-0.9314737,-0.09620129,0.1627022,0.04877621,0.9628149,-0.2279243,-9.599478,-36.3529,-6.412191,1008.109
6.382602692,-0.7461936,-0.2768023,0.04057138,0.04875822,0.9643078,-0.2322153,-9.599478,-36.3529,-6.412191,1008.109
6.387627602,-0.6844336,0.02419943,-0.02049401,0.04491638,0.9613459,-0.2308141,-8.855556,-36.34623,-6.8628,1008.109
6.392652035,-0.7461936,-0.216602,-0.0815594,0.04772855,0.9696798,-0.2340619,-8.855556,-36.34623,-6.8628,1008.109
6.397676468,-0.5609135,-0.216602,0.04057138,0.04825776,0.9657612,-0.2312387,-8.855556,-36.34623,-6.8628,1008.109
6.402703762,-0.4991535,-0.216602,0.04057138,0.05212608,0.966301,-0.2350653,-8.855556,-36.34623,-6.8628,1008.109
6.407725811,-0.6844336,-0.09620129,-0.0815594,0.04920311,0.9677483,-0.2355241,-8.855556,-36.34623,-6.8628,1008.109
6.412749767,-0.4991535,-0.2768023,-0.1426248,0.05121251,0.9614073,-0.2336904,-8.855556,-36.34623,-6.8628,1008.107
6.417774677,-0.4991535,0.02419943,-0.02049401,0.04396084,0.9599357,-0.2394517,-8.855556,-36.34623,-6.8628,1008.107
6.422799111,-0.2521133,-0.09620129,-0.1426248,0.04975507,0.9618624,-0.2303315,-8.855556,-36.34623,-6.8628,1008.107
6.427824020,-0.2521133,-0.1564016,-0.2036902,0.04884523,0.9565139,-0.2337514,-8.855556,-36.34623,-6.8628,1008.107
6.432848454,-0.1903532,-0.3972031,-0.1426248,0.04974943,0.9623533,-0.2308041,-8.855556,-36.34623,-6.8628,1008.107
6.437868595,-0.1285932,-0.216602,-0.1426248,0.05120507,0.9623168,-0.2241008,-9.226868,-36.34977,-6.864855,1008.107
6.442893028,-0.1903532,-0.3370027,-0.02049401,0.04636375,0.9618499,-0.2317663,-9.226868,-36.34977,-6.864855,1008.107
6.447917461,-0.005073093,-0.2768023,-0.0815594,0.04928919,0.9603563,-0.2246036,-9.226868,-36.34977,-6.864855,1008.107
6.452942371,-0.06683315,-0.216602,-0.2036902,0.04344042,0.9633037,-0.2331828,-9.226868,-36.34977,-6.864855,1008.111
6.457966805,0.118447,-0.2768023,0.04057138,0.04880199,0.9604059,-0.2322651,-9.226868,-36.34977,-6.864855,1008.111
6.462991715,0.05668695,-0.4574034,-0.1426248,0.04342629,0.9647241,-0.226939,-9.226868,-36.34977,-6.864855,1008.111
6.468015671,-0.005073093,-0.216602,-0.1426248,0.04586382,0.9632933,-0.2293531,-9.226868,-36.34977,-6.864855,1008.111
6.473040104,0.05668695,-0.2768023,-0.0815594,0.04732371,0.9627921,-0.2260081,-9.226868,-36.34977,-6.864855,1008.111
6.478065014,-0.005073093,-0.3972031,-0.325821,0.04341465,0.9657128,-0.228842,-9.226868,-36.34977,-6.864855,1008.111
6.483089447,0.3037271,-0.2768023,-0.2647556,0.04731154,0.9637907,-0.2293476,-9.226868,-36.34977,-6.864855,1008.111
6.488113880,0.5507673,-0.2768023,-0.2647556,0.05021159,0.9643142,-0.2317372,-9.226868,-36.34977,-6.864855,1008.111
6.493138790,0.6742874,-0.216602,-0.325821,0.04631627,0.9662065,-0.2269218,-9.226868,-36.34977,-6.864855,1008.111
6.498162747,0.8595675,-0.3972031,-0.4479518,0.05118743,0.9638031,-0.2274342,-9.226868,-36.34977,-6.864855,1008.111
6.503187180,0.6742874,-0.09620129,-0.5090172,0.05158961,0.9711257,-0.22782,-9.226868,-36.34977,-6.864855,1008.111
6.508212090,0.6125274,-0.2768023,-0.3868864,0.05026788,0.959407,-0.2274897,-9.226868,-36.34977,-6.864855,1008.111
6.513236523,0.4272472,-0.3370027,-0.5090172,0.05360664,0.9638718,-0.2350972,-9.226868,-36.34977,-6.864855,1008.111
6.518261433,0.4272472,-0.09620129,-0.4479518,0.04970619,0.9662454,-0.2293178,-9.226868,-36.34977,-6.864855,1008.111
6.523285866,0.2419671,-0.1564016,-0.2647556,0.05172393,0.9589784,-0.2346795,-9.226868,-36.34977,-6.864855,1008.111
6.528309822,0.4272472,0.2048005,-0.2647556,0.04632389,0.9652937,-0.2360325,-9.226868,-36.34977,-6.864855,1008.111
6.533334255,0.4890073,0.1446002,-0.2036902,0.05071928,0.9623399,-0.2279315,-9.226868,-36.34977,-6.864855,1008.111
6.538359165,0.4890073,0.08439979,-0.2647556,0.04586347,0.9632999,-0.2303109,-9.598177,-36.35332,-6.86691,1008.111
6.540871620,0.6125274,0.02419943,-0.2647556,0.04877656,0.9628083,-0.2269665,-9.598177,-36.35332,-6.86691,1008.111
6.545895577,0.6125274,0.02419943,-0.2647556,0.04342983,0.9642727,-0.2322126,-9.598177,-36.35332,-6.86691,1008.111
6.550921440,0.6742874,0.2048005,-0.2036902,0.04870509,0.9691556,-0.2278434,-9.598177,-36.35332,-6.86691,1008.111
6.555944920,0.6742874,0.2650009,-0.2647556,0.04294154,0.9647275,-0.2278964,-9.598177,-36.35332,-6.86691,1008.111
6.560969830,0.4890073,0.1446002,-0.325821,0.04387647,0.9676801,-0.2307328,-9.598177,-36.35332,-6.86691,1008.111
6.565994263,0.7360474,0.1446002,-0.2647556,0.04928214,0.9608738,-0.2289071,-9.598177,-36.35332,-6.86691,1008.111
6.571018219,0.6742874,0.02419943,-0.325821,0.04725439,0.9687142,-0.2359895,-9.598177,-36.35332,-6.86691,1008.111
6.576042652,0.6125274,-0.1564016,-0.1426248,0.04880659,0.9599347,-0.2346656,-9.598177,-36.35332,-6.86691,1008.111
6.581067562,0.7978075,-0.09620129,-0.2647556,0.04732179,0.9628284,-0.2312755,-9.598177,-36.35332,-6.86691,1008.111
6.586091995,0.7360474,-0.03600093,-0.325821,0.04880532,0.9603432,-0.2231668,-9.598177,-36.35332,-6.86691,1008.111
6.591116905,0.4890073,-0.1564016,-0.1426248,0.05064181,0.9691849,-0.2302387,-9.598177,-36.35332,-6.86691,1008.111
6.596141338,0.6742874,-0.216602,-0.2036902,0.05168121,0.9628605,-0.2317566,-9.598177,-36.35332,-6.86691,1008.111
6.601165295,0.6125274,0.02419943,-0.1426248,0.04589152,0.960848,-0.2284265,-9.598177,-36.35332,-6.86691,1008.111
6.606189728,0.4890073,0.02419943,-0.2647556,0.04633763,0.9642655,-0.2283832,-9.598177,-36.35332,-6.86691,1008.111
6.611214638,0.6742874,-0.1564016,-0.2647556,0.04928057,0.9609035,-0.2332168,-9.598177,-36.35332,-6.86691,1008.111
6.616239071,0.6125274,0.1446002,-0.2036902,0.04486522,0.9657719,-0.2360256,-9.598177,-36.35332,-6.86691,1008.111
6.621263981,0.6742874,0.2048005,-0.2036902,0.05115903,0.9662616,-0.2302763,-9.598177,-36.35332,-6.86691,1008.111
6.626288414,0.6125274,-0.03600093,-0.1426248,0.04827982,0.963807,-0.2307847,-9.598177,-36.35332,-6.86691,1008.111
6.631312370,0.8595675,-0.03600093,-0.2036902,0.04725632,0.9686779,-0.2307221,-9.598177,-36.35332,-6.86691,1008.111
6.636332989,0.5507673,-0.03600093,-0.1426248,0.05262918,0.9647981,-0.2288591,-9.599478,-36.3529,-6.412191,1008.111
6.641357899,0.180207,-0.03600093,-0.2036902,0.05022446,0.9633023,-0.2264822,-9.599478,-36.3529,-6.412191,1008.111
6.646382332,0.4272472,0.02419943,-0.1426248,0.04875346,0.9647824,-0.2302937,-9.599478,-36.3529,-6.412191,1008.111
6.651406765,0.118447,0.08439979,-0.2036902,0.04587371,0.9623376,-0.2322388,-9.599478,-36.3529,-6.412191,1008.111
6.656431675,-0.005073093,0.08439979,0.1627022,0.04053811,0.9628233,-0.2370184,-9.599478,-36.3529,-6.412191,1008.111
6.661455631,0.3654872,0.08439979,0.04057138,0.0458605,0.963356,-0.2384514,-9.599478,-36.3529,-6.412191,1008.111
6.666480065,0.4890073,-0.1564016,-0.02049401,0.04398448,0.9579517,-0.234688,-9.599478,-36.3529,-6.412191,1008.111
6.671504975,0.7978075,-0.2768023,-0.02049401,0.03814276,0.9603817,-0.2389637,-9.599478,-36.3529,-6.412191,1008.111
6.676529408,1.044848,-0.4574034,-0.0815594,0.04539251,0.9618896,-0.2384698,-9.599478,-36.3529,-6.412191,1008.111
6.681554318,1.044848,-0.5176038,-0.1426248,0.04393029,0.9628192,-0.2331892,-9.599478,-36.3529,-6.412191,1008.111
6.686578751,1.168368,-0.8186056,-0.0815594,0.04735002,0.9603732,-0.2289123,-8.858746,-35.9762,-6.861769,1008.111
6.691602707,1.168368,-0.878806,-0.2647556,0.04536178,0.9647765,-0.2326863,-8.858746,-35.9762,-6.861769,1008.111
6.696627140,1.044848,-0.878806,-0.325821,0.05023098,0.9627948,-0.2236153,-8.858746,-35.9762,-6.861769,1008.111
6.701652050,0.9213276,-0.6982049,-0.5090172,0.04777494,0.9657283,-0.2269287,-8.858746,-35.9762,-6.861769,1008.111
6.706676483,0.9213276,-0.6380045,-0.2647556,0.05600198,0.9663134,-0.2331519,-8.858746,-35.9762,-6.861769,1008.111
6.711701393,0.5507673,-0.6380045,-0.3868864,0.05165048,0.9657473,-0.225973,-8.858746,-35.9762,-6.861769,1008.111
6.716725826,0.7978075,-0.216602,-0.3868864,0.05115938,0.966255,-0.2293185,-8.858746,-35.9762,-6.861769,1008.111
6.721749783,0.7978075,-0.3370027,-0.325821,0.05404425,0.9682185,-0.2283374,-8.858746,-35.9762,-6.861769,1008.111
6.726774693,0.8595675,-0.216602,-0.2036902,0.05506158,0.9638485,-0.2303093,-8.858746,-35.9762,-6.861769,1008.111
6.731799126,0.6742874,-0.03600093,-0.2647556,0.0497009,0.9667299,-0.2288327,-8.861933,-35.60618,-6.860738,1008.111
6.736823559,0.7360474,-0.09620129,-0.2036902,0.04775253,0.9676892,-0.2283404,-8.861933,-35.60618,-6.860738,1008.114
6.741848469,0.8595675,-0.1564016,-0.3868864,0.04634169,0.9638041,-0.2322203,-8.861933,-35.60618,-6.860738,1008.114
6.746872902,0.6742874,-0.1564016,-0.2036902,0.04439089,0.9648097,-0.238432,-8.861933,-35.60618,-6.860738,1008.114
6.751897812,0.6125274,-0.3370027,-0.2036902,0.04534537,0.9662397,-0.2326676,-8.861933,-35.60618,-6.860738,1008.114
6.756925583,0.8595675,-0.1564016,-0.2647556,0.04534892,0.9657882,-0.2379413,-8.861933,-35.60618,-6.860738,1008.114
6.761946202,0.7978075,-0.2768023,-0.1426248,0.04537889,0.9633,-0.2307895,-8.861933,-35.60618,-6.860738,1008.114
6.766970635,0.5507673,-0.5778042,-0.3868864,0.0487254,0.9672342,-0.232178,-8.861933,-35.60618,-6.860738,1008.114
6.771995544,0.4890073,-0.3370027,-0.2036902,0.04582605,0.9666976,-0.227873,-8.861933,-35.60618,-6.860738,1008.114
6.777019978,0.3654872,-0.3370027,-0.325821,0.05299659,0.9750834,-0.234475,-8.861933,-35.60618,-6.860738,1008.112
6.782043934,0.2419671,-0.3370027,-0.325821,0.04633111,0.9647729,-0.2312502,-9.601553,-35.98324,-6.80092,1008.112
6.787070751,-0.3138733,-0.03600093,-0.2647556,0.04677616,0.9682102,-0.23408,-9.601553,-35.98324,-6.80092,1008.112
6.792093277,-0.1285932,-0.216602,-0.3868864,0.04485003,0.967212,-0.2326549,-9.601553,-35.98324,-6.80092,1008.112
6.797118187,-0.1285932,-0.216602,-0.3868864,0.04826818,0.9647957,-0.2326877,-9.601553,-35.98324,-6.80092,1008.112
6.802143097,-0.005073093,-0.216602,-0.3868864,0.04829111,0.9628249,-0.2298395,-9.601553,-35.98324,-6.80092,1008.112
6.807167053,-0.1903532,-0.1564016,-0.4479518,0.04780514,0.9628515,-0.2341489,-9.601553,-35.98324,-6.80092,1008.112
6.812191009,-0.1903532,-0.09620129,-0.4479518,0.04538367,0.9628255,-0.2327111,-9.601553,-35.98324,-6.80092,1008.112
6.817220688,-0.06683315,-0.2768023,-0.325821,0.04923611,0.9648185,-0.2350825,-9.601553,-35.98324,-6.80092,1008.112
6.822240353,0.180207,-0.3370027,-0.4479518,0.04345562,0.9618637,-0.2365534,-9.601553,-35.98324,-6.80092,1008.112
6.827265263,0.2419671,-0.03600093,-0.2647556,0.04830438,0.9614211,-0.2384775,-9.601553,-35.98324,-6.80092,1008.112
6.832289696,0.118447,-0.216602,-0.3868864,0.04638087,0.9603734,-0.2298696,-9.224981,-36.71937,-6.411167,1008.112
6.837310314,0.180207,-0.09620129,-0.1426248,0.04587743,0.9618829,-0.2370335,-9.224981,-36.71937,-6.411167,1008.112
6.842337608,0.3037271,-0.2768023,-0.0815594,0.04588023,0.9618301,-0.2293718,-9.224981,-36.71937,-6.411167,1008.112
6.847359180,0.2419671,0.1446002,-0.0815594,0.04975437,0.9618756,-0.2322469,-9.224981,-36.71937,-6.411167,1008.112
6.852383614,0.118447,-0.03600093,0.04057138,0.04485638,0.9667078,-0.2302669,-9.224981,-36.71937,-6.411167,1008.112
6.857408047,0.118447,-0.09620129,-0.02049401,0.04393734,0.9623017,-0.2288857,-9.224981,-36.71937,-6.411167,1008.11
6.862434387,0.180207,0.02419943,-0.2647556,0.04582959,0.9662462,-0.2331467,-9.224981,-36.71937,-6.411167,1008.11
6.867457390,0.4890073,-0.3370027,-0.2036902,0.04973424,0.9637935,-0.2274334,-9.224981,-36.71937,-6.411167,1008.11
6.872481346,0.2419671,-0.216602,-0.2647556,0.04783319,0.9603995,-0.2322646,-9.224981,-36.71937,-6.411167,1008.11
6.877506256,0.3037271,0.02419943,-0.2036902,0.04388263,0.9671791,-0.2288236,-9.224981,-36.71937,-6.411167,1008.11
6.882530689,0.05668695,-0.03600093,-0.1426248,0.04731807,0.9632831,-0.2264807,-9.599478,-36.3529,-6.412191,1008.11
6.887555599,0.05668695,0.2048005,-0.1426248,0.04734734,0.9608082,-0.2212444,-9.599478,-36.3529,-6.412191,1008.11
6.892580032,0.118447,0.2048005,-0.0815594,0.04971433,0.9653227,-0.236992,-9.599478,-36.3529,-6.412191,1008.11
6.897604465,-0.06683315,0.2650009,-0.0815594,0.04635614,0.9627627,-0.2226556,-9.599478,-36.3529,-6.412191,1008.108
6.902628422,-0.1903532,0.445602,0.04057138,0.04442209,0.9622983,-0.2279283,-9.599478,-36.3529,-6.412191,1008.108
6.907658577,-0.3138733,0.3252012,0.1016368,0.04297489,0.9617912,-0.2264972,-9.599478,-36.3529,-6.412191,1008.108
6.912677765,-0.2521133,-0.09620129,0.1016368,0.04440905,0.9633134,-0.2336621,-9.599478,-36.3529,-6.412191,1008.108
6.917702675,-0.3756334,0.02419943,0.04057138,0.04145942,0.9671862,-0.2321744,-9.599478,-36.3529,-6.412191,1008.108
6.922727108,-0.2521133,-0.3370027,0.1627022,0.04343303,0.9638278,-0.238444,-9.599478,-36.3529,-6.412191,1008.108
6.927752018,-0.1285932,-0.3370027,0.1627022,0.0424764,0.9628228,-0.2351039,-9.598364,-36.35326,-6.80195,1008.108
6.932775974,-0.2521133,-0.4574034,0.1627022,0.04971026,0.9657841,-0.2331549,-9.598364,-36.35326,-6.80195,1008.108
6.937800407,0.05668695,-0.6380045,0.04057138,0.05170786,0.960435,-0.2337031,-9.598364,-36.35326,-6.80195,1008.107
6.942824841,0.05668695,-0.5778042,0.2237676,0.04393292,0.9627697,-0.2260064,-9.598364,-36.35326,-6.80195,1008.107
6.947849751,-0.1903532,-0.3370027,0.1016368,0.04780654,0.9628251,-0.2303181,-9.598364,-36.35326,-6.80195,1008.107
6.952874184,-0.06683315,-0.1564016,0.04057138,0.05410407,0.96286,-0.2293635,-9.598364,-36.35326,-6.80195,1008.107
6.957899094,-0.005073093,-0.3370027,-0.0815594,0.04732831,0.9623208,-0.2284086,-9.598364,-36.35326,-6.80195,1008.107
6.962923050,-0.1903532,-0.03600093,0.2237676,0.0449194,0.9609044,-0.2375243,-9.598364,-36.35326,-6.80195,1008.107
6.967947483,-0.1903532,-0.216602,0.2237676,0.04292972,0.9657195,-0.2302783,-9.598364,-36.35326,-6.80195,1008.107
6.972971916,-0.1285932,-0.09620129,0.2237676,0.05219825,0.9599406,-0.232273,-9.598364,-36.35326,-6.80195,1008.107
6.977996826,-0.3138733,-0.2768023,0.1627022,0.04587953,0.9618433,-0.2312872,-9.601553,-35.98324,-6.80092,1008.107
6.983021259,-0.1903532,-0.1564016,0.1016368,0.04729373,0.9652803,-0.2331599,-9.601553,-35.98324,-6.80092,1008.107
6.988046169,-0.3138733,-0.2768023,0.04057138,0.04442069,0.9623247,-0.2317591,-9.601553,-35.98324,-6.80092,1008.107
6.993070126,-0.3138733,-0.4574034,0.04057138,0.04098171,0.9666722,-0.2288283,-9.601553,-35.98324,-6.80092,1008.107
6.998094559,-0.1903532,-0.5778042,0.284833,0.04440463,0.9637814,-0.2307828,-9.601553,-35.98324,-6.80092,1008.107
7.003119469,-0.06683315,-0.5176038,0.04057138,0.04629933,0.9676796,-0.2283397,-9.601553,-35.98324,-6.80092,1008.107
7.008143902,-0.2521133,-0.2768023,-0.02049401,0.04195016,0.9666852,-0.2297865,-9.601553,-35.98324,-6.80092,1008.107
7.013168335,-0.2521133,-0.216602,0.1627022,0.04779385,0.9638335,-0.2350942,-9.601553,-35.98324,-6.80092,1008.107
7.018193245,-0.3138733,-0.3370027,0.1627022,0.04339421,0.9672518,-0.2398371,-9.601553,-35.98324,-6.80092,1008.107
7.023217201,-0.1903532,-0.2768023,-0.0815594,0.04679717,0.9662758,-0.2364992,-9.601553,-35.98324,-6.80092,1008.107
7.028243065,-0.06683315,-0.3370027,0.1016368,0.04344042,0.9633037,-0.2331828,-9.595762,-36.35411,-7.711388,1008.107
7.033266544,-0.2521133,-0.3370027,-0.0815594,0.04536161,0.9647797,-0.2331651,-9.595762,-36.35411,-7.711388,1008.107
7.038287163,-0.1285932,-0.3972031,-0.1426248,0.04245626,0.9647408,-0.2302905,-9.595762,-36.35411,-7.711388,1008.107
7.043311596,-0.3756334,-0.216602,-0.0815594,0.04344485,0.9628358,-0.2360621,-9.595762,-36.35411,-7.711388,1008.107
7.048336506,-0.4991535,-0.5778042,0.1016368,0.0506833,0.9653258,-0.2365136,-9.595762,-36.35411,-7.711388,1008.107
7.050848484,-0.4991535,-0.5778042,-0.02049401,0.04683879,0.9627988,-0.2274444,-9.595762,-36.35411,-7.711388,1008.107
7.055872917,-0.4373934,-0.4574034,0.04057138,0.04434323,0.9691697,-0.2340664,-9.595762,-36.35411,-7.711388,1008.107
7.060897350,-0.3756334,-0.3370027,-0.0815594,0.04586999,0.9627924,-0.2274439,-9.595762,-36.35411,-7.711388,1008.107
7.065921307,-0.4991535,-0.4574034,0.04057138,0.04775095,0.967719,-0.2326502,-9.595762,-36.35411,-7.711388,1008.107
7.070946217,-0.3756334,-0.3370027,0.04057138,0.04728297,0.9662525,-0.2326686,-9.595762,-36.35411,-7.711388,1008.107
7.075970650,-0.1903532,-0.216602,-0.0815594,0.04820888,0.9701443,-0.2302251,-9.223867,-36.71974,-6.800926,1008.107
7.080995560,-0.1903532,-0.5778042,-0.02049401,0.04685608,0.9613191,-0.2250688,-9.223867,-36.71974,-6.800926,1008.107
7.086019993,-0.4373934,-0.1564016,-0.0815594,0.04921597,0.9667366,-0.2302691,-9.223867,-36.71974,-6.800926,1008.107
7.091044903,-0.3138733,-0.2768023,-0.0815594,0.04491498,0.9613723,-0.234645,-9.223867,-36.71974,-6.800926,1008.107
7.096068859,-0.4373934,-0.09620129,-0.02049401,0.04728402,0.9662327,-0.2297954,-9.223867,-36.71974,-6.800926,1008.107
7.101093292,-0.3138733,-0.09620129,-0.02049401,0.04779752,0.9637642,-0.2250382,-9.223867,-36.71974,-6.800926,1008.109
7.106117725,-0.6226736,-0.09620129,0.04057138,0.04630958,0.9667174,-0.2302676,-9.223867,-36.71974,-6.800926,1008.109
7.111142635,-0.6844336,-0.1564016,0.04057138,0.04634134,0.9638107,-0.233178,-9.223867,-36.71974,-6.800926,1008.109
7.116167069,-0.7461936,-0.03600093,0.2237676,0.04584758,0.9647533,-0.2288556,-9.223867,-36.71974,-6.800926,1008.109
7.121196270,-0.3138733,-0.03600093,-0.02049401,0.04200294,0.9618441,-0.2351161,-9.223867,-36.71974,-6.800926,1008.109
7.126215935,-0.6226736,-0.216602,-0.0815594,0.04733238,0.9618595,-0.2322457,-9.221792,-37.08939,-6.412198,1008.109
7.131240368,-0.3138733,-0.216602,-0.02049401,0.04634134,0.9638107,-0.233178,-9.221792,-37.08939,-6.412198,1008.109
7.136265278,-0.3138733,0.1446002,0.1016368,0.04635072,0.9628649,-0.2375002,-9.221792,-37.08939,-6.412198,1008.109
7.141289711,0.05668695,-0.09620129,-0.0815594,0.0473052,0.964295,-0.2317357,-9.221792,-37.08939,-6.412198,1008.107
7.146314144,-0.06683315,0.02419943,0.04057138,0.04733273,0.9618529,-0.231288,-9.221792,-37.08939,-6.412198,1008.107
7.151339054,-0.1285932,-0.03600093,-0.0815594,0.0467885,0.9672083,-0.2302616,-9.221792,-37.08939,-6.412198,1008.107
7.156363010,-0.3756334,-0.03600093,0.1016368,0.04440586,0.9637582,-0.2274307,-9.221792,-37.08939,-6.412198,1008.107
7.161388397,-0.3138733,-0.09620129,-0.02049401,0.04732691,0.9623472,-0.2322395,-9.221792,-37.08939,-6.412198,1008.107
7.166412354,0.05668695,0.02419943,0.1016368,0.04685275,0.9613819,-0.2341671,-9.221792,-37.08939,-6.412198,1008.107
7.171436787,-0.1903532,-0.09620129,-0.1426248,0.04345137,0.9623283,-0.2331952,-9.221792,-37.08939,-6.412198,1008.107
7.176461220,-0.06683315,-0.216602,0.04057138,0.04542493,0.9593552,-0.224614,-9.601366,-35.9833,-6.865879,1008.107
7.181486130,-0.3138733,-0.216602,0.04057138,0.0492421,0.964321,-0.2336521,-9.601366,-35.9833,-6.865879,1008.106
7.186510086,-0.3756334,-0.03600093,-0.02049401,0.04292,0.9666718,-0.2269138,-9.601366,-35.9833,-6.865879,1008.106
7.191534519,-0.5609135,-0.216602,-0.0815594,0.03953928,0.9656904,-0.2293189,-9.601366,-35.9833,-6.865879,1008.106
7.196563244,-0.4373934,-0.09620129,0.04057138,0.04439333,0.9647635,-0.231728,-9.601366,-35.9833,-6.865879,1008.106
7.201583862,-0.4991535,-0.2768023,-0.02049401,0.04678163,0.9677225,-0.2340862,-9.601366,-35.9833,-6.865879,1008.106
7.206608772,-0.4991535,0.08439979,-0.0815594,0.04448174,0.9569432,-0.2294332,-9.601366,-35.9833,-6.865879,1008.106
7.211633205,-0.4373934,-0.09620129,-0.02049401,0.04922586,0.9657809,-0.2331546,-9.601366,-35.9833,-6.865879,1008.106
7.216657162,-0.3756334,-0.09620129,0.1627022,0.04390684,0.9647998,-0.2374741,-9.601366,-35.9833,-6.865879,1008.106
7.221681595,-0.3756334,-0.216602,-0.0815594,0.05161911,0.9682619,-0.2369556,-9.601366,-35.9833,-6.865879,1008.106
7.226706505,-0.4373934,-0.09620129,-0.0815594,0.04387524,0.9677032,-0.2340848,-9.599478,-36.3529,-6.412191,1008.106
7.231730938,-0.1903532,-0.1564016,0.1016368,0.04388054,0.9672187,-0.2345699,-9.599478,-36.3529,-6.412191,1008.106
7.236751556,-0.2521133,-0.03600093,0.1016368,0.04884488,0.9565205,-0.2347091,-9.599478,-36.3529,-6.412191,1008.106
7.241776466,-0.06683315,-0.3370027,-0.2036902,0.05072724,0.9614206,-0.2360845,-9.599478,-36.3529,-6.412191,1008.106
7.246800423,-0.005073093,-0.216602,0.04057138,0.04296522,0.9623581,-0.2379836,-9.599478,-36.3529,-6.412191,1008.106
7.251824856,0.3037271,-0.2768023,-0.2036902,0.04434498,0.9691367,-0.2292778,-9.599478,-36.3529,-6.412191,1008.106
7.256849766,-0.005073093,-0.1564016,-0.0815594,0.04486557,0.9657652,-0.2350679,-9.599478,-36.3529,-6.412191,1008.106
7.261874199,0.05668695,-0.1564016,-0.02049401,0.04142519,0.9701391,-0.2359679,-9.599478,-36.3529,-6.412191,1008.106
