Time (s),Gyroscope X (deg/s),Gyroscope Y (deg/s),Gyroscope Z (deg/s),Accelerometer X (g),Accelerometer Y (g),Accelerometer Z (g),Magnetometer X (uT),Magnetometer Y (uT),Magnetometer Z (uT),Barometer (hPa)
0.001835346,2.130094,1.335223,-0.1190755,0.03575464,0.9574195,-0.2361266,-8.106749,-37.07911,-6.795791,1008.222
0.006859779,2.377134,1.455624,-0.05801012,0.0406041,0.9569638,-0.2361353,-8.109938,-36.70909,-6.79476,1008.222
0.011884689,2.624174,1.455624,0.06412067,0.03480015,0.9559895,-0.2418911,-8.109938,-36.70909,-6.79476,1008.222
0.016909122,2.871215,1.395424,0.06412067,0.03383328,0.9559469,-0.2366231,-8.109938,-36.70909,-6.79476,1008.222
0.021933556,2.809454,1.455624,0.3083822,0.03722459,0.9559593,-0.2351883,-8.109938,-36.70909,-6.79476,1008.222
0.026958942,2.871215,1.335223,0.3083822,0.03274326,0.9666871,-0.2388801,-8.109938,-36.70909,-6.79476,1008.222
0.031982899,2.685935,1.335223,0.3083822,0.03180251,0.9642289,-0.2369953,-8.109938,-36.70909,-6.79476,1008.222
0.037011623,2.315374,1.395424,0.3083822,0.02985449,0.9651816,-0.2355453,-8.109938,-36.70909,-6.79476,1008.222
0.042032242,2.438894,1.395424,0.6137092,0.03278685,0.9627886,-0.2394088,-8.109938,-36.70909,-6.79476,1008.222
0.047057152,2.377134,1.515824,0.4915784,0.02644676,0.9666324,-0.2369615,-8.109938,-36.70909,-6.79476,1008.222
0.052081585,2.377134,1.576025,0.6137092,0.02981568,0.9686056,-0.2369384,-8.109938,-36.70909,-6.79476,1008.222
0.057106018,2.500654,1.515824,0.5526438,0.03521024,0.9627782,-0.2355791,-7.800512,-36.70613,-6.793047,1008.222
0.062126637,2.315374,1.455624,0.430513,0.03036944,0.9623013,-0.2418081,-7.800512,-36.70613,-6.793047,1008.222
0.067151546,2.500654,1.455624,0.3694476,0.02735998,0.9715326,-0.2392942,-7.800512,-36.70613,-6.793047,1008.222
0.072175980,2.377134,1.455624,0.3083822,0.03222585,0.9696137,-0.2393215,-7.800512,-36.70613,-6.793047,1008.222
0.077200890,2.253614,1.395424,0.06412067,0.0316938,0.9739704,-0.2349555,-7.800512,-36.70613,-6.793047,1008.222
0.082230091,2.191854,1.395424,0.5526438,0.03175187,0.9686449,-0.2407702,-7.800512,-36.70613,-6.793047,1008.222
0.087249756,1.636014,1.335223,0.3694476,0.02744309,0.9641968,-0.2365143,-7.800512,-36.70613,-6.793047,1008.222
0.092274666,1.388973,1.275023,0.430513,0.02743092,0.9651953,-0.2398539,-7.800512,-36.70613,-6.793047,1008.222
0.097299099,1.388973,1.455624,0.1862515,0.02937347,0.9647303,-0.2412976,-7.800512,-36.70613,-6.793047,1008.222
0.102324009,1.450734,1.515824,0.1862515,0.02938441,0.9637548,-0.2413101,-7.800512,-36.70613,-6.793047,1008.222
0.107348442,1.759534,1.636225,0.1862515,0.02980915,0.9691132,-0.2398053,-8.111824,-36.33949,-7.248447,1008.222
0.112373352,1.759534,1.275023,0.003055274,0.02740427,0.9676208,-0.2379073,-8.111824,-36.33949,-7.248447,1008.222
0.117397785,1.512494,1.636225,-0.05801012,0.02789059,0.9675878,-0.2326401,-8.111824,-36.33949,-7.248447,1008.222
0.122422218,1.450734,1.335223,-0.05801012,0.02592972,0.9695523,-0.2364451,-8.111824,-36.33949,-7.248447,1008.222
0.127447128,1.203693,1.335223,-0.1801409,0.02450654,0.9666691,-0.2441434,-8.111824,-36.33949,-7.248447,1008.222
0.132471561,0.8948931,1.154622,-0.1190755,0.02542291,0.9715099,-0.2378566,-8.111824,-36.33949,-7.248447,1008.222
0.137496471,0.833133,0.9138207,-0.3022717,0.02167284,0.9602795,-0.2399131,-8.111824,-36.33949,-7.248447,1008.222
0.142520905,0.833133,0.6730193,-0.1190755,0.02353915,0.9666362,-0.2403121,-8.111824,-36.33949,-7.248447,1008.222
0.147545338,0.8948931,0.4924182,0.003055274,0.02356015,0.9647017,-0.2427313,-8.111824,-36.33949,-7.248447,1008.222
0.152570248,0.771373,0.3720175,-0.05801012,0.02742493,0.9656929,-0.2412842,-7.797323,-37.07616,-6.794078,1008.222
0.157594681,0.4008127,0.1914164,0.003055274,0.02498227,0.9676049,-0.2379061,-7.797323,-37.07616,-6.794078,1008.222
0.162619591,0.3390526,0.01081538,0.06412067,0.02794989,0.962239,-0.2351028,-7.797323,-37.07616,-6.794078,1008.222
0.167644024,0.03025243,-0.4105872,-0.05801012,0.02737639,0.9700694,-0.2393128,-7.797323,-37.07616,-6.794078,1008.222
0.172668934,-0.03150762,-0.04938498,-0.05801012,0.02787366,0.9690609,-0.234058,-7.797323,-37.07616,-6.794078,1008.22
0.177693367,-0.4638279,-0.3503868,0.06412067,0.02940414,0.9622288,-0.2322304,-7.797323,-37.07616,-6.794078,1008.22
0.182717800,-0.7108681,-0.3503868,-0.1190755,0.03422468,0.9642416,-0.2365177,-7.797323,-37.07616,-6.794078,1008.22
0.187741756,-0.525588,-0.1697858,-0.1801409,0.0318124,0.9632731,-0.2398809,-7.797323,-37.07616,-6.794078,1008.22
0.192766666,-0.587348,-0.1697858,-0.1801409,0.03279337,0.962281,-0.2365418,-7.797323,-37.07616,-6.794078,1008.22
0.197791100,-0.3403079,-0.04938498,-0.1190755,0.03375809,0.9627488,-0.2327052,-7.797323,-37.07616,-6.794078,1008.22
0.248037338,-0.8961483,0.7332197,-0.3022717,0.0327489,0.9661961,-0.2384075,-7.797323,-37.07616,-6.794078,1008.22
0.253062248,-0.525588,0.612819,-0.2412063,0.03426367,0.9608142,-0.2346458,-8.108637,-36.70952,-7.249478,1008.222
0.255574703,-0.587348,0.6730193,-0.3022717,0.0313585,0.9607719,-0.2312923,-8.108637,-36.70952,-7.249478,1008.222
0.260599613,-0.4638279,0.9138207,-0.1801409,0.0405434,0.9623387,-0.2375035,-8.108637,-36.70952,-7.249478,1008.222
0.265620232,-0.6491081,0.7332197,-0.2412063,0.03329382,0.9608275,-0.2375185,-8.108637,-36.70952,-7.249478,1008.222
0.270644665,-0.8343882,0.7332197,-0.05801012,0.03860947,0.9622566,-0.2274465,-8.108637,-36.70952,-7.249478,1008.222
0.275669575,-0.7726282,0.8536204,0.003055274,0.03522647,0.9613182,-0.2360766,-8.108637,-36.70952,-7.249478,1008.222
0.280694008,-0.8961483,1.214823,-0.05801012,0.03528013,0.9564606,-0.239012,-8.108637,-36.70952,-7.249478,1008.222
0.285718441,-0.8343882,0.9740211,0.06412067,0.03814114,0.9607968,-0.2284226,-8.108637,-36.70952,-7.249478,1008.222
0.290743351,-0.8343882,1.214823,0.1862515,0.03569429,0.962788,-0.2365371,-8.108637,-36.70952,-7.249478,1008.223
0.295767784,-0.8961483,1.455624,0.3083822,0.03912937,0.9588985,-0.235152,-8.108637,-36.70952,-7.249478,1008.223
0.300791740,-0.8961483,1.455624,0.3083822,0.03673298,0.9564768,-0.2399704,-8.106749,-37.07911,-6.795791,1008.223
0.305816650,-0.9579083,1.576025,0.3694476,0.03523159,0.9608371,-0.2370406,-8.106749,-37.07911,-6.795791,1008.223
0.310841084,-0.7726282,1.756626,0.4915784,0.03379004,0.9598387,-0.2351368,-8.106749,-37.07911,-6.795791,1008.223
0.315865994,-1.390229,1.636225,0.5526438,0.03380278,0.9584449,-0.2452115,-8.106749,-37.07911,-6.795791,1008.223
0.320890427,-1.019668,1.756626,0.6747746,0.03378195,0.960376,-0.2423135,-8.106749,-37.07911,-6.795791,1008.223
0.325914860,-1.390229,1.877027,0.73584,0.03369494,0.9681699,-0.2407774,-8.106749,-37.07911,-6.795791,1008.223
0.330939770,-1.204948,1.576025,0.8579708,0.03476238,0.9593938,-0.240411,-8.106749,-37.07911,-6.795791,1008.223
0.335964203,-1.143188,1.455624,0.9190362,0.02938545,0.963735,-0.2384369,-8.106749,-37.07911,-6.795791,1008.223
0.340989113,-0.8961483,1.395424,0.8579708,0.0322961,0.9632896,-0.2417966,-8.106749,-37.07911,-6.795791,1008.223
0.346016407,-0.8343882,0.9740211,0.9190362,0.02750011,0.958891,-0.2452021,-8.106749,-37.07911,-6.795791,1008.223
0.351037979,-0.4638279,0.9138207,1.163298,0.02891007,0.9627926,-0.2437165,-7.804998,-36.33569,-6.337298,1008.223
0.356062889,-0.3403079,0.8536204,1.041167,0.02891817,0.9622554,-0.2365399,-7.804998,-36.33569,-6.337298,1008.223
0.361087322,-0.1550277,0.6730193,1.041167,0.03228161,0.9647165,-0.2365105,-7.804998,-36.33569,-6.337298,1008.223
0.366112232,-0.2167878,0.9138207,0.9190362,0.02791672,0.9651721,-0.2360232,-7.804998,-36.33569,-6.337298,1008.223
0.371136665,-0.3403079,0.612819,1.102232,0.03180885,0.9637246,-0.2346072,-7.804998,-36.33569,-6.337298,1008.223
0.376161575,-0.587348,0.7332197,0.9801016,0.03082789,0.9647168,-0.2379463,-7.804998,-36.33569,-6.337298,1008.223
0.381186009,-0.7726282,0.8536204,1.041167,0.03513189,0.9696395,-0.2402807,-7.804998,-36.33569,-6.337298,1008.223
0.386210442,-0.8961483,0.7934201,1.102232,0.03420617,0.9657444,-0.2422454,-7.804998,-36.33569,-6.337298,1008.223
0.391240120,-0.8961483,0.6730193,0.9190362,0.03377735,0.9608473,-0.239913,-7.804998,-36.33569,-6.337298,1008.223
0.396259785,-0.8343882,0.9138207,0.9190362,0.03333339,0.9570048,-0.2490608,-7.804998,-36.33569,-6.337298,1008.223
0.401284695,-0.4638279,0.7934201,0.9190362,0.02797567,0.9598301,-0.2394436,-7.4279,-36.70301,-7.24571,1008.223
0.406309128,-0.525588,0.2516168,0.9190362,0.03132747,0.9632798,-0.2413173,-7.4279,-36.70301,-7.24571,1008.223
0.411333561,-0.7726282,0.5526186,0.8579708,0.03027062,0.9710872,-0.2426539,-7.4279,-36.70301,-7.24571,1008.223
0.416358471,-0.7108681,0.1312161,0.9190362,0.0270081,0.9598005,-0.2360911,-7.4279,-36.70301,-7.24571,1008.223
0.421386242,-0.7108681,0.07101572,0.7969054,0.02889419,0.964246,-0.2422613,-7.4279,-36.70301,-7.24571,1008.223
0.426407814,-0.525588,0.1312161,0.9190362,0.02843696,0.9618073,-0.242771,-7.4279,-36.70301,-7.24571,1008.223
0.431432247,-0.4638279,-0.1095854,0.8579708,0.03423811,0.9628345,-0.244677,-7.4279,-36.70301,-7.24571,1008.223
0.436457157,-0.1550277,-0.1095854,0.9190362,0.03136367,0.9599053,-0.2471071,-7.4279,-36.70301,-7.24571,1008.223
0.441481590,-0.2785478,-0.2299861,0.7969054,0.03372689,0.96526,-0.243209,-7.4279,-36.70301,-7.24571,1008.223
0.446506024,-0.4020679,-0.4707876,0.8579708,0.03136065,0.9603469,-0.2403969,-7.4279,-36.70301,-7.24571,1008.223
0.451530933,-0.2167878,-0.4707876,0.7969054,0.02893055,0.9608681,-0.2475723,-8.484434,-36.34262,-6.795784,1008.223
0.456555367,-0.09326766,-0.4105872,0.8579708,0.03228958,0.9637971,-0.2446636,-8.484434,-36.34262,-6.795784,1008.223
0.461580277,0.03025243,-0.4707876,0.4915784,0.02889913,0.9637681,-0.2437041,-8.484434,-36.34262,-6.795784,1008.223
0.466601372,0.03025243,-0.6513886,0.5526438,0.02944051,0.958851,-0.2375414,-8.484434,-36.34262,-6.795784,1008.223
0.471625328,0.03025243,-0.5911882,0.4915784,0.03276956,0.9642683,-0.2417844,-8.484434,-36.34262,-6.795784,1008.223
0.476650238,-0.4638279,-0.5911882,0.4915784,0.03375565,0.962795,-0.2394093,-8.484434,-36.34262,-6.795784,1008.223
0.481675148,-0.587348,-0.7717893,0.5526438,0.03084855,0.9627889,-0.2413232,-8.484434,-36.34262,-6.795784,1008.223
0.486699104,-0.4638279,-0.711589,0.3694476,0.03233334,0.9598952,-0.2447133,-8.484434,-36.34262,-6.795784,1008.223
0.491724014,-0.587348,-0.89219,0.430513,0.03423299,0.9633155,-0.243713,-8.484434,-36.34262,-6.795784,1008.223
0.496748448,-0.1550277,-0.8319896,0.3694476,0.03570877,0.9613611,-0.2418232,-8.108637,-36.70952,-7.249478,1008.223
0.501773358,-0.03150762,-0.711589,0.2473169,0.03718403,0.9594164,-0.2413699,-8.108637,-36.70952,-7.249478,1008.223
0.506797791,0.09201248,-0.4105872,0.3694476,0.03575166,0.9574756,-0.2442672,-8.108637,-36.70952,-7.249478,1008.223
0.511822224,0.2772926,-0.4707876,0.3083822,0.03619457,0.9613378,-0.2379926,-8.108637,-36.70952,-7.249478,1008.223
0.516847134,0.2772926,-0.2901864,0.2473169,0.0361291,0.9671873,-0.2374391,-8.108637,-36.70952,-7.249478,1008.223
0.521874905,-0.03150762,-0.3503868,0.3083822,0.03951919,0.9672229,-0.2393563,-8.108637,-36.70952,-7.249478,1008.223
0.526896477,0.03025243,-0.2901864,0.3694476,0.03857687,0.9647944,-0.2417811,-8.108637,-36.70952,-7.249478,1008.223
0.531920910,-0.1550277,-0.1095854,0.1862515,0.03670615,0.9589056,-0.2385027,-8.108637,-36.70952,-7.249478,1008.223
0.536944866,-0.09326766,-0.1697858,0.1862515,0.03088084,0.9598724,-0.2427971,-8.108637,-36.70952,-7.249478,1008.223
0.541970253,-0.3403079,0.07101572,0.1862515,0.03378794,0.9598784,-0.2408831,-8.108637,-36.70952,-7.249478,1008.223
0.546994209,0.03025243,0.07101572,0.1251861,0.03572658,0.9598714,-0.238011,-8.106749,-37.07911,-6.795791,1008.223
0.552018643,-0.03150762,0.1312161,0.2473169,0.03622087,0.9589189,-0.2408968,-8.106749,-37.07911,-6.795791,1008.223
0.557043553,0.3390526,0.1914164,0.3694476,0.03574194,0.958428,-0.2409028,-8.106749,-37.07911,-6.795791,1008.223
0.562068939,0.2155325,0.3720175,0.430513,0.03376024,0.9623237,-0.2418098,-8.106749,-37.07911,-6.795791,1008.223
0.567092896,0.3390526,0.3118172,0.1251861,0.0367314,0.9565066,-0.2442802,-8.106749,-37.07911,-6.795791,1008.223
0.572117329,0.03025243,0.4924182,0.2473169,0.03468951,0.9657673,-0.2451188,-8.106749,-37.07911,-6.795791,1008.223
0.577142239,0.1537725,0.3118172,0.4915784,0.03375477,0.9628115,-0.2418036,-8.106749,-37.07911,-6.795791,1008.223
0.582166672,0.2772926,0.2516168,0.3083822,0.02989104,0.9618005,-0.2403775,-8.106749,-37.07911,-6.795791,1008.223
0.587191105,0.6478529,0.2516168,0.3083822,0.03525155,0.9589224,-0.2423329,-8.106749,-37.07911,-6.795791,1008.223
0.592216015,1.018413,0.4924182,0.3694476,0.03093113,0.9554629,-0.2399799,-8.106749,-37.07911,-6.795791,1008.223
0.597240448,1.450734,0.612819,0.4915784,0.0337685,0.9617832,-0.2341542,-7.800512,-36.70613,-6.793047,1008.223
0.602265358,1.327213,0.612819,0.4915784,0.02890281,0.9636987,-0.233648,-7.800512,-36.70613,-6.793047,1008.223
0.607289791,1.203693,0.6730193,0.3694476,0.03375105,0.9632661,-0.2370087,-7.800512,-36.70613,-6.793047,1008.223
0.612314224,0.9566531,0.7332197,0.5526438,0.02838383,0.966655,-0.2383991,-7.800512,-36.70613,-6.793047,1008.223
0.617339134,0.5243328,0.4322179,0.6137092,0.0293957,0.9627728,-0.2403648,-7.800512,-36.70613,-6.793047,1008.222
0.622363567,0.4625728,0.4322179,0.3694476,0.03381617,0.9574232,-0.2385199,-7.800512,-36.70613,-6.793047,1008.222
0.627393723,0.771373,0.3118172,0.4915784,0.03040192,0.9593815,-0.2428031,-7.800512,-36.70613,-6.793047,1008.222
0.632412911,1.018413,0.07101572,0.430513,0.03528722,0.9555578,-0.2495593,-7.800512,-36.70613,-6.793047,1008.222
0.637437821,1.265453,-0.04938498,0.1862515,0.03237728,0.9559901,-0.2442842,-7.800512,-36.70613,-6.793047,1008.222
0.642462254,1.636014,-0.2299861,0.3694476,0.03376483,0.9618525,-0.2442103,-7.800512,-36.70613,-6.793047,1008.222
0.647486687,1.759534,0.07101572,0.2473169,0.03471861,0.9632956,-0.2403613,-7.797323,-37.07616,-6.794078,1008.222
0.652511597,1.759534,0.1312161,0.1251861,0.03374488,0.9637671,-0.2389179,-7.797323,-37.07616,-6.794078,1008.222
0.657536030,1.636014,0.1312161,0.06412067,0.03854086,0.9681656,-0.2355125,-7.797323,-37.07616,-6.794078,1008.222
0.662560940,1.636014,0.4322179,0.1251861,0.03660273,0.9681627,-0.236948,-7.797323,-37.07616,-6.794078,1008.222
0.667581558,1.018413,0.8536204,0.003055274,0.03713072,0.9642674,-0.2374769,-7.797323,-37.07616,-6.794078,1008.222
0.672605992,0.8948931,0.9138207,-0.05801012,0.0351933,0.9642513,-0.236997,-7.797323,-37.07616,-6.794078,1008.222
0.677630425,0.8948931,0.7332197,0.003055274,0.03618345,0.9623165,-0.238459,-7.797323,-37.07616,-6.794078,1008.222
0.682655335,1.141933,0.8536204,0.06412067,0.03084837,0.9627923,-0.2418021,-7.797323,-37.07616,-6.794078,1008.222
0.687679768,1.574254,0.7934201,0.003055274,0.0347629,0.9593838,-0.2389744,-7.797323,-37.07616,-6.794078,1008.222
0.692704678,1.759534,0.7934201,-0.05801012,0.0284834,0.9574704,-0.2504887,-7.797323,-37.07616,-6.794078,1008.222
0.697729111,1.821294,0.4322179,-0.1801409,0.02314915,0.9583151,-0.2365867,-8.109938,-36.70909,-6.79476,1008.222
0.702754021,1.883054,0.4924182,-0.05801012,0.03133347,0.9627823,-0.2398869,-8.109938,-36.70909,-6.79476,1008.222
0.707778454,1.697774,0.6730193,-0.1801409,0.02501615,0.9646586,-0.2350702,-8.109938,-36.70909,-6.79476,1008.222
0.712802887,1.450734,0.4924182,-0.1190755,0.02888976,0.9647139,-0.239382,-8.109938,-36.70909,-6.79476,1008.222
0.717827797,1.388973,0.1914164,-0.3022717,0.02400748,0.968096,-0.239336,-8.109938,-36.70909,-6.79476,1008.222
0.722852230,1.080173,0.1914164,-0.3022717,0.02986863,0.9637613,-0.2417892,-8.109938,-36.70909,-6.79476,1008.222
0.727877140,0.771373,0.07101572,-0.4244025,0.02205365,0.9695431,-0.2388374,-8.109938,-36.70909,-6.79476,1008.222
0.732901573,0.771373,0.07101572,-0.2412063,0.02790333,0.9661938,-0.2427148,-8.109938,-36.70909,-6.79476,1008.222
0.737926483,0.5860928,-0.04938498,-0.4854679,0.02403624,0.9656309,-0.2355362,-8.109938,-36.70909,-6.79476,1008.222
0.740438461,0.6478529,-0.2299861,-0.4854679,0.03035972,0.9632536,-0.2384436,-8.109938,-36.70909,-6.79476,1008.222
0.745462895,0.5860928,-0.2901864,-0.4244025,0.03471402,0.9637669,-0.2379607,-8.115725,-36.33822,-5.884293,1008.222
0.750487328,0.5243328,-0.3503868,-0.6075987,0.033744,0.9637836,-0.2413123,-8.115725,-36.33822,-5.884293,1008.222
0.755512238,0.771373,-0.2299861,-0.4244025,0.03379958,0.9588897,-0.2389801,-8.115725,-36.33822,-5.884293,1008.222
0.760536671,0.6478529,-0.1697858,-0.4244025,0.0351663,0.9666833,-0.2360082,-8.115725,-36.33822,-5.884293,1008.222
0.765562057,0.4008127,-0.2299861,-0.4244025,0.03032213,0.9666547,-0.2364846,-8.115725,-36.33822,-5.884293,1008.222
0.770586014,0.4008127,-0.1697858,-0.5465333,0.03422328,0.964268,-0.2403486,-8.115725,-36.33822,-5.884293,1008.222
0.775616169,0.5860928,-0.2901864,-0.4854679,0.03419627,0.9667001,-0.2393598,-8.115725,-36.33822,-5.884293,1008.222
0.780635357,0.3390526,-0.04938498,-0.5465333,0.03280256,0.9613385,-0.2413429,-8.115725,-36.33822,-5.884293,1008.222
0.785659790,0.5243328,-0.04938498,-0.3022717,0.03374965,0.9632925,-0.2408396,-8.115725,-36.33822,-5.884293,1008.222
0.790684700,0.5860928,-0.1697858,-0.6075987,0.03275827,0.9652503,-0.2427297,-8.115725,-36.33822,-5.884293,1008.222
0.795709133,0.771373,0.01081538,-0.3633371,0.03419592,0.9667067,-0.2403175,-7.797323,-37.07616,-6.794078,1008.222
0.800734043,0.833133,0.3720175,-0.3633371,0.03370518,0.9672076,-0.2427053,-7.797323,-37.07616,-6.794078,1008.222
0.805760384,0.5860928,0.1914164,-0.3633371,0.03233474,0.9598688,-0.2408824,-7.797323,-37.07616,-6.794078,1008.222
0.810782909,0.5860928,0.07101572,-0.3633371,0.03284015,0.9579376,-0.2433018,-7.797323,-37.07616,-6.794078,1008.222
0.815807819,0.7096129,0.1312161,-0.3022717,0.03621645,0.9593869,-0.2380174,-7.797323,-37.07616,-6.794078,1008.222
0.820835113,0.833133,0.3118172,-0.3633371,0.03669275,0.9599273,-0.2451944,-7.797323,-37.07616,-6.794078,1008.222
0.825857162,0.6478529,0.3720175,-0.3633371,0.03667297,0.9618387,-0.2394232,-7.797323,-37.07616,-6.794078,1008.222
0.830881596,0.7096129,0.3720175,-0.3633371,0.0381267,0.9618384,-0.2379873,-7.797323,-37.07616,-6.794078,1008.222
0.835906029,0.5860928,0.7934201,-0.4244025,0.03915125,0.9569476,-0.2351768,-7.797323,-37.07616,-6.794078,1008.222
0.840930939,0.7096129,0.6730193,-0.3633371,0.03961714,0.9584536,-0.2409047,-8.481247,-36.71264,-6.796815,1008.222
0.845955372,0.5860928,0.7934201,0.003055274,0.03523969,0.9602998,-0.2298639,-8.481247,-36.71264,-6.796815,1008.222
0.850980282,0.4625728,0.9740211,-0.1190755,0.04200719,0.9613795,-0.2384743,-8.481247,-36.71264,-6.796815,1008.222
0.856004715,0.4008127,0.8536204,0.2473169,0.03765906,0.9603653,-0.237048,-8.481247,-36.71264,-6.796815,1008.222
0.861029625,0.2772926,0.5526186,0.4915784,0.03276426,0.9647527,-0.2412993,-8.481247,-36.71264,-6.796815,1008.226
0.866050243,0.5243328,0.3720175,0.430513,0.02749179,0.959817,-0.2380068,-8.481247,-36.71264,-6.796815,1008.226
0.871074676,0.4625728,0.1914164,0.6747746,0.02837079,0.9676701,-0.244133,-8.481247,-36.71264,-6.796815,1008.226
0.876099110,0.2772926,-0.2901864,0.6747746,0.02598674,0.9642466,-0.245133,-8.481247,-36.71264,-6.796815,1008.226
0.881124020,0.09201248,-0.711589,0.6747746,0.02695147,0.9647142,-0.2412964,-8.481247,-36.71264,-6.796815,1008.226
0.886148453,0.1537725,-1.072791,0.5526438,0.03323754,0.9657347,-0.241766,-8.481247,-36.71264,-6.796815,1008.226
0.891174316,-0.03150762,-1.072791,0.6137092,0.03515378,0.9676886,-0.2403056,-7.803699,-36.33611,-6.792016,1008.226
0.896197796,0.2772926,-1.132991,0.1251861,0.03518555,0.9647819,-0.243216,-7.803699,-36.33611,-6.792016,1008.226
0.901222706,0.2772926,-0.8319896,0.06412067,0.0419299,0.9682211,-0.2403028,-7.803699,-36.33611,-6.792016,1008.226
0.906247139,0.03025243,-0.9523904,-0.05801012,0.04626813,0.9701909,-0.2388435,-7.803699,-36.33611,-6.792016,1008.226
0.911276340,-0.587348,-0.6513886,-0.1190755,0.04963298,0.9726256,-0.2349833,-7.803699,-36.33611,-6.792016,1008.226
0.916295528,-1.328469,-0.1697858,-0.1190755,0.05106074,0.9750376,-0.2296855,-7.803699,-36.33611,-6.792016,1008.226
0.921320438,-1.699029,0.612819,-0.2412063,0.05164082,0.9663143,-0.2374594,-7.803699,-36.33611,-6.792016,1008.226
0.926344872,-2.069589,0.612819,-0.3633371,0.05599581,0.9668143,-0.2350611,-7.803699,-36.33611,-6.792016,1008.226
0.931369781,-2.069589,1.335223,-0.3022717,0.05069937,0.9638692,-0.23749,-7.803699,-36.33611,-6.792016,1008.226
0.936394215,-2.625429,1.816826,-0.1801409,0.04732958,0.9619123,-0.2399074,-7.803699,-36.33611,-6.792016,1008.226
0.941418648,-2.316629,2.057628,0.003055274,0.04782492,0.9609401,-0.2399201,-8.113125,-36.33907,-6.793729,1008.226
0.946443558,-2.440149,1.937227,0.003055274,0.04205327,0.9570493,-0.2471498,-8.113125,-36.33907,-6.793729,1008.226
0.951468945,-2.007829,2.358629,0.1862515,0.03818832,0.9560614,-0.2490757,-8.113125,-36.33907,-6.793729,1008.226
0.956492901,-1.204948,2.53923,0.1862515,0.04013191,0.9555765,-0.2476464,-8.113125,-36.33907,-6.793729,1008.226
0.961517334,-0.4638279,2.900433,0.1251861,0.04156747,0.9570725,-0.2509804,-8.113125,-36.33907,-6.793729,1008.226
0.966542244,-0.525588,3.321835,0.3083822,0.0430766,0.9521816,-0.2476914,-8.113125,-36.33907,-6.793729,1008.226
0.971566677,-0.9579083,3.562636,0.3083822,0.04776562,0.9662887,-0.2374574,-8.113125,-36.33907,-6.793729,1008.226
0.976591110,-2.440149,3.622837,0.5526438,0.04821807,0.9692019,-0.2350261,-8.113125,-36.33907,-6.793729,1008.226
0.981616020,-3.860631,3.923839,0.73584,0.04874431,0.9653394,-0.2403435,-8.113125,-36.33907,-6.793729,1008.226
0.986640453,-4.972311,3.502436,0.9801016,0.04481738,0.9701351,-0.2321388,-8.113125,-36.33907,-6.793729,1008.224
0.991665363,-5.589912,3.743237,1.224363,0.04684059,0.9623803,-0.2375067,-8.113125,-36.33907,-6.793729,1008.224
0.996689796,-5.219352,3.803438,1.224363,0.04792781,0.9516928,-0.2429114,-8.113125,-36.33907,-6.793729,1008.224
1.001714706,-4.292951,3.923839,1.52969,0.04215756,0.9477756,-0.2463102,-8.113125,-36.33907,-6.793729,1008.224
1.006739140,-3.18127,3.683037,1.590756,0.0426245,0.9492618,-0.249165,-8.113125,-36.33907,-6.793729,1008.224
1.011763573,-3.05775,3.562636,1.773952,0.04068318,0.9497039,-0.2443692,-8.113125,-36.33907,-6.793729,1008.224
1.016788483,-3.42831,3.020833,1.957148,0.0434087,0.965825,-0.2451232,-8.113125,-36.33907,-6.793729,1008.224
1.021812916,-3.860631,2.960633,2.140344,0.04632249,0.9653201,-0.2398634,-8.113125,-36.33907,-6.793729,1008.224
1.026837826,-4.354711,2.960633,2.018213,0.04433636,0.9696838,-0.237891,-8.113125,-36.33907,-6.793729,1008.226
1.031862259,-4.787031,2.960633,2.079279,0.04625719,0.9711664,-0.2388311,-8.113125,-36.33907,-6.793729,1008.226
1.036886692,-4.787031,3.020833,1.835017,0.04578356,0.970191,-0.2393221,-8.113125,-36.33907,-6.793729,1008.226
1.041911602,-4.416471,3.382035,1.651821,0.04388193,0.9671923,-0.230739,-8.482546,-36.71222,-6.342097,1008.226
1.046936035,-4.292951,3.321835,1.835017,0.04479888,0.971638,-0.2378664,-8.482546,-36.71222,-6.342097,1008.226
1.051960945,-4.354711,3.321835,1.712886,0.03893558,0.9763978,-0.2263087,-8.482546,-36.71222,-6.342097,1008.226
1.056985378,-4.601751,3.502436,1.773952,0.0403932,0.9759394,-0.2291888,-8.482546,-36.71222,-6.342097,1008.226
1.062010288,-4.725271,3.382035,1.957148,0.03988726,0.9778805,-0.2282059,-8.482546,-36.71222,-6.342097,1008.226
1.067030907,-5.157592,3.201434,1.896083,0.03602266,0.976886,-0.2291741,-8.482546,-36.71222,-6.342097,1008.226
1.072055340,-5.157592,3.141234,2.079279,0.04045954,0.9700733,-0.227348,-8.482546,-36.71222,-6.342097,1008.226
1.077082634,-5.342872,2.840232,2.079279,0.03757875,0.9676484,-0.2321662,-8.482546,-36.71222,-6.342097,1008.226
1.082104683,-5.466392,2.53923,2.32354,0.03170049,0.9734595,-0.2316097,-8.482546,-36.71222,-6.342097,1008.226
1.087129116,-5.836952,2.659631,2.20141,0.03755175,0.9700804,-0.2311774,-8.105448,-37.07954,-7.250509,1008.226
1.092154026,-6.207512,2.298429,2.018213,0.03170824,0.9729289,-0.2253908,-8.105448,-37.07954,-7.250509,1008.226
1.097178459,-6.578073,2.178028,2.262475,0.02841206,0.9641998,-0.2360359,-8.105448,-37.07954,-7.250509,1008.226
1.102202892,-6.701593,1.756626,2.079279,0.02991554,0.9597999,-0.2332194,-8.105448,-37.07954,-7.250509,1008.226
1.107227802,-6.331032,2.117828,2.079279,0.02312267,0.9607373,-0.2341613,-8.105448,-37.07954,-7.250509,1008.226
1.112252235,-6.269272,1.576025,2.079279,0.02459915,0.9587695,-0.230356,-8.105448,-37.07954,-7.250509,1008.226
1.117277145,-5.713432,1.455624,1.835017,0.02660611,0.9524747,-0.2352264,-8.105448,-37.07954,-7.250509,1008.226
1.122301579,-4.972311,1.576025,1.407559,0.02270904,0.9544001,-0.2351996,-8.105448,-37.07954,-7.250509,1008.226
1.127326489,-4.045911,1.455624,1.224363,0.02406661,0.9627507,-0.2422775,-8.105448,-37.07954,-7.250509,1008.226
1.132350922,-3.67535,1.214823,1.224363,0.02409112,0.9607502,-0.2351195,-8.105448,-37.07954,-7.250509,1008.226
1.137375355,-3.42831,1.094422,0.9801016,0.02309602,0.9631627,-0.2322148,-7.797911,-36.70699,-7.702484,1008.226
1.142400265,-3.61359,1.094422,0.6747746,0.02358059,0.9631626,-0.2317361,-7.797911,-36.70699,-7.702484,1008.226
1.147424698,-3.55183,0.7332197,0.4915784,0.02696149,0.9641408,-0.2288523,-7.797911,-36.70699,-7.702484,1008.226
1.152449608,-3.49007,0.612819,0.3083822,0.02894005,0.9603044,-0.2365647,-7.797911,-36.70699,-7.702484,1008.226
1.157474041,-2.93423,0.3720175,0.06412067,0.02168146,0.9597324,-0.2312998,-7.797911,-36.70699,-7.702484,1008.226
1.162497997,-2.316629,0.1914164,-0.3633371,0.02409164,0.9607403,-0.2336829,-7.797911,-36.70699,-7.702484,1008.226
1.167523384,-2.007829,0.01081538,-0.5465333,0.02304463,0.9679774,-0.2230543,-7.797911,-36.70699,-7.702484,1008.226
1.172547340,-1.637269,-0.04938498,-0.6075987,0.02787471,0.969041,-0.2311849,-7.797911,-36.70699,-7.702484,1008.226
1.177571774,-2.007829,0.1914164,-0.973991,0.02789339,0.967535,-0.2249784,-7.797911,-36.70699,-7.702484,1008.226
1.182600498,-2.193109,0.01081538,-0.973991,0.0287962,0.9734007,-0.225862,-7.797911,-36.70699,-7.702484,1008.226
1.187621117,-2.131349,0.3118172,-1.279318,0.03078128,0.969057,-0.2307075,-7.801098,-36.33696,-7.701453,1008.224
1.192646027,-2.193109,0.3118172,-1.035056,0.02597576,0.9656075,-0.2302697,-7.801098,-36.33696,-7.701453,1008.224
1.197670460,-1.884309,0.4924182,-1.279318,0.02798412,0.9592863,-0.2313092,-7.801098,-36.33696,-7.701453,1008.224
1.202694893,-1.266708,0.4322179,-1.340383,0.02941193,0.9613128,-0.2408623,-7.801098,-36.33696,-7.701453,1008.224
1.207719803,-0.7726282,0.01081538,-1.584645,0.02702928,0.9578629,-0.2380314,-7.801098,-36.33696,-7.701453,1008.224
1.212744236,-0.4638279,-0.1095854,-1.706776,0.0231375,0.9593038,-0.2384896,-7.801098,-36.33696,-7.701453,1008.224
1.217769146,-0.2167878,0.01081538,-1.64571,0.02076719,0.9548519,-0.2318404,-7.801098,-36.33696,-7.701453,1008.224
1.222793579,0.2155325,0.3118172,-1.951037,0.0226651,0.9583053,-0.2356287,-7.801098,-36.33696,-7.701453,1008.224
1.227818489,0.4008127,0.6730193,-1.828907,0.02164032,0.9635848,-0.2240672,-7.801098,-36.33696,-7.701453,1008.223
1.232842922,0.4625728,1.214823,-1.951037,0.02699199,0.9616426,-0.2202639,-7.801098,-36.33696,-7.701453,1008.223
1.237867355,0.5243328,1.756626,-2.012103,0.01965349,0.9679616,-0.2240103,-7.796022,-37.07658,-7.248796,1008.223
1.242892265,0.4625728,1.816826,-2.012103,0.02059616,0.9703836,-0.2206276,-7.796022,-37.07658,-7.248796,1008.223
1.247916699,0.2772926,2.298429,-2.378495,0.01969301,0.9645243,-0.2207018,-7.796022,-37.07658,-7.248796,1008.223
1.250429630,0.2772926,1.997427,-2.378495,0.02259376,0.9650346,-0.2211759,-7.796022,-37.07658,-7.248796,1008.223
1.255454063,0.1537725,1.997427,-2.378495,0.02172802,0.9557777,-0.2236878,-7.796022,-37.07658,-7.248796,1008.223
1.260478497,0.2772926,1.696425,-2.43956,0.02550864,0.9641246,-0.2278938,-7.796022,-37.07658,-7.248796,1008.223
1.265499592,0.4008127,1.455624,-2.31743,0.02795536,0.9617513,-0.235109,-7.796022,-37.07658,-7.248796,1008.223
1.270524025,0.833133,1.094422,-2.256364,0.02408285,0.9612908,-0.242775,-7.796022,-37.07658,-7.248796,1008.221
1.275548458,1.080173,0.7934201,-1.951037,0.02511217,0.9559256,-0.2418862,-7.796022,-37.07658,-7.248796,1008.221
1.280573368,1.388973,0.5526186,-1.889972,0.02748388,0.9603509,-0.2447046,-7.796022,-37.07658,-7.248796,1008.221
1.285597801,1.388973,0.2516168,-1.64571,0.02801733,0.9559678,-0.2452397,-7.797911,-36.70699,-7.702484,1008.221
1.290622711,1.512494,0.1914164,-1.340383,0.0255595,0.9593198,-0.2384909,-7.797911,-36.70699,-7.702484,1008.221
1.295647144,1.944814,-0.4105872,-1.462514,0.02310858,0.9617721,-0.2427683,-7.797911,-36.70699,-7.702484,1008.221
1.300671101,2.253614,-0.4707876,-1.52358,0.02462002,0.956453,-0.2481049,-7.797911,-36.70699,-7.702484,1008.221
1.305695534,2.377134,-1.132991,-1.706776,0.01830218,0.9583392,-0.2447248,-7.797911,-36.70699,-7.702484,1008.221
1.310720444,2.624174,-1.433993,-1.828907,0.02609051,0.9549828,-0.24573,-7.797911,-36.70699,-7.702484,1008.221
1.315748215,2.932975,-1.674795,-2.134233,0.02944458,0.9583897,-0.2413785,-7.797911,-36.70699,-7.702484,1008.221
1.320769787,3.180015,-1.674795,-2.256364,0.03570347,0.9618455,-0.2413381,-7.797911,-36.70699,-7.702484,1008.221
1.325794220,3.427055,-1.494194,-2.43956,0.02983261,0.9671325,-0.2355205,-7.797911,-36.70699,-7.702484,1008.221
1.330820084,3.735855,-1.373793,-2.744888,0.03527251,0.9573733,-0.2299012,-7.797911,-36.70699,-7.702484,1008.221
1.335843563,3.488815,-1.072791,-2.928084,0.0351592,0.9675862,-0.2254609,-7.797911,-36.70699,-7.702484,1008.221
1.340867996,3.180015,-1.012591,-3.050215,0.03616223,0.9646397,-0.2216678,-7.797911,-36.70699,-7.702484,1008.221
1.345892906,2.747694,-0.5309879,-3.233411,0.03661503,0.9675463,-0.2182788,-7.797911,-36.70699,-7.702484,1008.221
1.350917339,1.883054,0.01081538,-3.294476,0.04051967,0.9650936,-0.2125655,-7.797911,-36.70699,-7.702484,1008.221
1.355942249,1.821294,0.3118172,-3.294476,0.04294451,0.9646713,-0.2197558,-7.797911,-36.70699,-7.702484,1008.221
1.360966683,1.697774,0.4924182,-3.355541,0.04105016,0.9607666,-0.2212412,-7.797911,-36.70699,-7.702484,1008.221
1.365992069,2.191854,0.6730193,-3.050215,0.04351964,0.9564259,-0.226087,-7.797911,-36.70699,-7.702484,1008.221
1.371016026,2.624174,0.612819,-3.050215,0.04253408,0.9578893,-0.2270255,-7.797911,-36.70699,-7.702484,1008.221
1.376040459,2.809454,0.7332197,-2.867018,0.03911453,0.960332,-0.2308236,-7.797911,-36.70699,-7.702484,1008.221
1.381065369,2.809454,0.3118172,-2.683822,0.04688273,0.9588936,-0.2270153,-7.797911,-36.70699,-7.702484,1008.221
1.386089802,2.685935,0.4924182,-2.256364,0.04343636,0.9637651,-0.2293457,-7.432388,-36.33256,-6.789961,1008.221
1.391119957,2.624174,0.5526186,-2.134233,0.04635352,0.9628121,-0.2298385,-7.432388,-36.33256,-6.789961,1008.223
1.396139145,2.438894,0.1914164,-1.706776,0.03620813,0.9603128,-0.2308221,-7.432388,-36.33256,-6.789961,1008.223
1.401163578,2.500654,0.07101572,-1.279318,0.03520156,0.9637107,-0.2293415,-7.432388,-36.33256,-6.789961,1008.223
1.406188488,2.624174,-0.2299861,-1.279318,0.02886132,0.9675578,-0.2273732,-7.432388,-36.33256,-6.789961,1008.223
1.411212921,2.871215,-0.3503868,-1.035056,0.0337819,0.9607614,-0.2274627,-7.432388,-36.33256,-6.789961,1008.223
1.416237831,2.871215,-0.6513886,-0.7297295,0.03466933,0.9680707,-0.2254544,-7.432388,-36.33256,-6.789961,1008.223
1.421262264,3.180015,-0.9523904,-0.8518602,0.0337166,0.9666077,-0.2264303,-7.432388,-36.33256,-6.789961,1008.223
1.426287174,3.241775,-1.072791,-1.035056,0.03764453,0.9621776,-0.2169111,-7.432388,-36.33256,-6.789961,1008.223
1.431311607,3.674095,-1.012591,-1.218253,0.03710699,0.9670221,-0.2125389,-7.803699,-36.33611,-6.792016,1008.223
1.436336041,3.982895,-0.5911882,-1.706776,0.04144948,0.9685273,-0.2144379,-7.803699,-36.33611,-6.792016,1008.223
1.441360951,3.921135,-0.3503868,-1.951037,0.0444118,0.9636461,-0.2111495,-7.803699,-36.33611,-6.792016,1008.223
1.446385384,3.797615,-0.04938498,-2.012103,0.05213466,0.9661393,-0.2116012,-7.803699,-36.33611,-6.792016,1008.223
1.451410771,3.488815,0.612819,-2.256364,0.05651119,0.9646949,-0.2101855,-7.803699,-36.33611,-6.792016,1008.223
1.456434727,3.488815,0.7332197,-2.500626,0.05847352,0.9623185,-0.2174005,-7.803699,-36.33611,-6.792016,1008.223
1.461459160,3.612335,1.094422,-2.378495,0.05218127,0.9617991,-0.2188401,-7.803699,-36.33611,-6.792016,1008.223
1.466479778,3.921135,1.576025,-2.500626,0.05757636,0.9559617,-0.2160442,-7.803699,-36.33611,-6.792016,1008.223
1.471504688,3.859375,1.696425,-2.31743,0.05662327,0.9545053,-0.2179778,-7.803699,-36.33611,-6.792016,1008.223
1.476529122,4.291696,2.057628,-1.951037,0.05516722,0.9549338,-0.210788,-7.803699,-36.33611,-6.792016,1008.223
1.481554031,4.415215,2.780032,-1.767841,0.05469906,0.9534708,-0.2112853,-7.4266,-36.70344,-7.700429,1008.223
1.486578465,4.909296,3.261635,-1.52358,0.04782255,0.9617538,-0.2164436,-7.4266,-36.70344,-7.700429,1008.223
1.491603375,4.724016,3.683037,-1.218253,0.05014835,0.9705062,-0.2101077,-7.4266,-36.70344,-7.700429,1008.223
1.496627808,4.724016,4.04424,-0.7907948,0.0438127,0.9738821,-0.2105398,-7.4266,-36.70344,-7.700429,1008.223
1.501652241,4.353456,4.405442,-0.3633371,0.03786931,0.9855362,-0.2084722,-7.4266,-36.70344,-7.700429,1008.223
1.506681919,3.427055,4.285041,0.003055274,0.03889037,0.9807115,-0.2152389,-7.4266,-36.70344,-7.700429,1008.223
1.511701584,2.500654,4.285041,0.3694476,0.03585268,0.9923979,-0.2150882,-7.4266,-36.70344,-7.700429,1008.223
1.516726494,1.203693,3.863638,0.73584,0.02867619,0.9841244,-0.2247674,-7.4266,-36.70344,-7.700429,1008.224
1.521750927,0.5860928,3.382035,0.9190362,0.03160959,0.9817115,-0.2257577,-7.4266,-36.70344,-7.700429,1008.224
1.526775360,0.09201248,3.141234,0.8579708,0.02337096,0.9817297,-0.2362884,-7.4266,-36.70344,-7.700429,1008.224
1.531800270,0.09201248,2.53923,1.224363,0.02584254,0.9773495,-0.2353879,-7.799212,-36.70656,-7.247766,1008.224
1.536824703,0.2772926,2.47903,1.224363,0.01523924,0.9724248,-0.2387967,-7.799212,-36.70656,-7.247766,1008.224
1.541848660,0.4008127,2.298429,1.163298,0.02251389,0.9715402,-0.245038,-7.799212,-36.70656,-7.247766,1008.224
1.546873570,0.2772926,2.117828,0.9801016,0.02015365,0.9661294,-0.2407954,-7.799212,-36.70656,-7.247766,1008.224
1.551901341,-0.2785478,2.47903,0.9801016,0.02305934,0.9661618,-0.2427124,-7.799212,-36.70656,-7.247766,1008.224
1.556922913,-0.587348,2.47903,1.285429,0.02257,0.9666364,-0.2412693,-7.799212,-36.70656,-7.247766,1008.224
1.561947346,-0.6491081,2.599431,1.163298,0.02495265,0.9700865,-0.2441002,-7.799212,-36.70656,-7.247766,1008.224
1.566973210,-0.4638279,2.960633,1.102232,0.02981887,0.9681608,-0.2431698,-7.799212,-36.70656,-7.247766,1008.224
1.571996689,-0.03150762,3.201434,1.102232,0.03037137,0.962265,-0.2365406,-7.799212,-36.70656,-7.247766,1008.224
1.577021122,0.2155325,3.081034,1.346494,0.0302999,0.9686121,-0.2374175,-7.799212,-36.70656,-7.247766,1008.224
1.582046032,0.09201248,3.201434,1.590756,0.02881952,0.971038,-0.2369068,-7.4305,-36.70216,-6.336274,1008.224
1.587070465,-0.525588,2.960633,1.52969,0.02690451,0.969061,-0.2350153,-7.4305,-36.70216,-6.336274,1008.224
1.592095852,-1.451989,2.840232,1.773952,0.02348142,0.9719551,-0.2335396,-7.4305,-36.70216,-6.336274,1008.224
1.597119808,-2.193109,2.599431,1.957148,0.02353967,0.9666263,-0.2388755,-7.4305,-36.70216,-6.336274,1008.224
1.602144241,-2.93423,2.238229,2.018213,0.02356103,0.9646853,-0.240337,-7.4305,-36.70216,-6.336274,1008.224
1.607169151,-3.42831,1.756626,2.32354,0.02500311,0.9656737,-0.2408041,-7.4305,-36.70216,-6.336274,1008.224
1.612193585,-3.30479,1.515824,2.567802,0.01974973,0.9588398,-0.2451982,-7.4305,-36.70216,-6.336274,1008.224
1.617218495,-2.99599,1.034221,2.750998,0.02121019,0.9579433,-0.2552674,-7.4305,-36.70216,-6.336274,1008.224
1.622242928,-2.68719,1.094422,2.750998,0.01590916,0.9554693,-0.2552958,-7.4305,-36.70216,-6.336274,1008.224
1.627267361,-2.378389,0.9138207,2.934194,0.01635137,0.9593448,-0.2509366,-8.108637,-36.70952,-7.249478,1008.224
1.632292271,-2.378389,0.6730193,2.873129,0.01389917,0.9622056,-0.2437152,-8.108637,-36.70952,-7.249478,1008.224
1.637317658,-1.946069,0.5526186,2.689933,0.01292083,0.9631483,-0.2398714,-8.108637,-36.70952,-7.249478,1008.224
1.642341614,-1.513749,0.7934201,2.750998,0.007607627,0.9616731,-0.2432393,-8.108637,-36.70952,-7.249478,1008.224
1.647366047,-1.513749,0.5526186,2.445671,0.01198398,0.960232,-0.2423025,-8.108637,-36.70952,-7.249478,1008.224
1.652390957,-1.143188,0.7332197,2.079279,0.01396429,0.9563627,-0.2452264,-8.108637,-36.70952,-7.249478,1008.224
1.657415390,-0.8343882,0.7934201,2.20141,0.01828681,0.9597826,-0.241833,-8.108637,-36.70952,-7.249478,1008.224
1.662439823,-0.09326766,0.4924182,1.957148,0.01837627,0.9519425,-0.236665,-8.108637,-36.70952,-7.249478,1008.224
1.667460442,0.4008127,0.3118172,1.957148,0.01930485,0.9553993,-0.2418895,-8.108637,-36.70952,-7.249478,1008.224
1.672485352,0.5243328,0.3720175,1.835017,0.01681401,0.9616811,-0.2355822,-8.108637,-36.70952,-7.249478,1008.224
1.677509785,0.4625728,-0.04938498,1.896083,0.02120428,0.9592085,-0.2265172,-7.799212,-36.70656,-7.247766,1008.224
1.682534695,0.4625728,-0.2299861,1.896083,0.01726536,0.9649994,-0.2211732,-7.799212,-36.70656,-7.247766,1008.224
1.687559128,0.3390526,-0.3503868,1.52969,0.02454514,0.9636337,-0.2283784,-7.799212,-36.70656,-7.247766,1008.224
1.692584038,-0.1550277,-0.4707876,1.52969,0.01875406,0.9616477,-0.2288792,-7.799212,-36.70656,-7.247766,1008.224
1.697608471,-0.3403079,-0.711589,1.224363,0.01878513,0.9587542,-0.2337051,-7.799212,-36.70656,-7.247766,1008.224
1.702632904,-0.09326766,-0.711589,0.9190362,0.01933658,0.9528781,-0.2299491,-7.799212,-36.70656,-7.247766,1008.224
1.707657814,0.3390526,-0.8319896,0.73584,0.02223453,0.9534412,-0.2380849,-7.799212,-36.70656,-7.247766,1008.224
1.712682247,0.833133,-0.711589,0.7969054,0.02660716,0.9524549,-0.2323533,-7.799212,-36.70656,-7.247766,1008.224
1.717707157,1.574254,-1.072791,0.6137092,0.02468865,0.9505439,-0.2400389,-7.799212,-36.70656,-7.247766,1008.224
1.722731590,1.944814,-1.193192,0.3694476,0.03000999,0.9510967,-0.2443451,-7.799212,-36.70656,-7.247766,1008.224
1.727756024,2.315374,-1.193192,0.2473169,0.02614946,0.9496408,-0.2491504,-7.800512,-36.70613,-6.793047,1008.224
1.732780934,2.500654,-0.89219,0.1251861,0.03046739,0.9535319,-0.2433566,-7.800512,-36.70613,-6.793047,1008.224
1.737805367,2.438894,-0.8319896,-0.2412063,0.03144835,0.9525397,-0.2400175,-7.800512,-36.70613,-6.793047,1008.224
1.742830277,2.562414,-0.711589,-0.4854679,0.03192518,0.9530703,-0.2457578,-7.800512,-36.70613,-6.793047,1008.224
1.747854710,2.871215,-0.3503868,-0.6075987,0.03288851,0.9535645,-0.2457521,-7.800512,-36.70613,-6.793047,1008.224
1.752879620,3.180015,0.2516168,-0.8518602,0.03383508,0.9555283,-0.2466854,-7.800512,-36.70613,-6.793047,1008.224
1.755391598,3.674095,0.1312161,-0.973991,0.02798946,0.9584164,-0.2466452,-7.800512,-36.70613,-6.793047,1008.224
1.760416031,3.921135,0.2516168,-1.462514,0.0308401,0.9633328,-0.2494576,-7.800512,-36.70613,-6.793047,1008.223
1.765440464,4.415215,0.612819,-1.767841,0.03713869,0.963348,-0.2456299,-7.800512,-36.70613,-6.793047,1008.223
1.770465374,4.291696,0.8536204,-2.256364,0.03179284,0.9647958,-0.2484818,-7.800512,-36.70613,-6.793047,1008.223
1.775489807,4.476975,1.094422,-2.31743,0.03614026,0.9658232,-0.2518235,-7.426012,-37.07261,-6.792023,1008.223
1.780514717,4.538735,1.395424,-2.43956,0.0332632,0.9629436,-0.2614366,-7.426012,-37.07261,-6.792023,1008.223
1.785539150,5.218096,1.455624,-2.622757,0.03813611,0.9605072,-0.2571604,-7.426012,-37.07261,-6.792023,1008.223
1.790563583,5.773936,1.756626,-2.500626,0.03716696,0.9605073,-0.2581176,-7.426012,-37.07261,-6.792023,1008.223
1.795588493,6.329777,1.696425,-2.378495,0.03861841,0.96055,-0.2629069,-7.426012,-37.07261,-6.792023,1008.223
1.800612926,6.515057,1.937227,-2.134233,0.03134306,0.9614478,-0.2585811,-7.426012,-37.07261,-6.792023,1008.221
1.805637836,6.391537,1.816826,-2.073168,0.03573459,0.9585667,-0.2610149,-7.426012,-37.07261,-6.792023,1008.221
1.810662270,6.020977,2.117828,-1.889972,0.03676072,0.9536461,-0.2538947,-7.426012,-37.07261,-6.792023,1008.221
1.815687180,6.206257,2.178028,-1.706776,0.02947605,0.9551042,-0.2600975,-7.426012,-37.07261,-6.792023,1008.221
1.820711613,5.897457,2.238229,-1.462514,0.03234927,0.9580565,-0.2610194,-7.426012,-37.07261,-6.792023,1008.221
1.825738907,6.206257,2.41883,-1.279318,0.0246167,0.9565157,-0.2572033,-7.800512,-36.70613,-6.793047,1008.221
1.830760956,6.638577,2.53923,-1.401449,0.02025216,0.9569647,-0.2557582,-7.800512,-36.70613,-6.793047,1008.221
1.835788727,6.700337,2.358629,-1.279318,0.02214262,0.9613275,-0.249957,-7.800512,-36.70613,-6.793047,1008.221
1.840810299,6.515057,2.599431,-1.157187,0.01779042,0.9607747,-0.2446935,-7.800512,-36.70613,-6.793047,1008.221
1.845834732,7.070898,2.659631,-1.340383,0.01976049,0.9578677,-0.2456895,-7.800512,-36.70613,-6.793047,1008.221
1.850859642,7.317938,2.41883,-1.401449,0.02023238,0.958876,-0.2499871,-7.800512,-36.70613,-6.793047,1008.221
1.855884075,7.935538,2.599431,-1.52358,0.01773607,0.9656454,-0.2436736,-7.800512,-36.70613,-6.793047,1008.221
1.860908508,8.059057,2.719831,-1.828907,0.02352343,0.9680862,-0.238378,-7.800512,-36.70613,-6.793047,1008.221
1.865929127,7.935538,2.41883,-1.951037,0.02404066,0.965163,-0.2384155,-7.800512,-36.70613,-6.793047,1008.221
1.870954037,7.317938,2.41883,-1.951037,0.02548239,0.966158,-0.2398404,-7.800512,-36.70613,-6.793047,1008.221
1.875978470,6.206257,2.47903,-2.073168,0.02403239,0.9657035,-0.2460711,-7.4305,-36.70216,-6.336274,1008.221
1.881003380,5.403376,2.47903,-2.134233,0.03085826,0.9618366,-0.2446877,-7.4305,-36.70216,-6.336274,1008.221
1.886027813,4.353456,2.298429,-2.134233,0.02982806,0.9672183,-0.2479708,-7.4305,-36.70216,-6.336274,1008.221
1.891052246,3.735855,2.298429,-1.951037,0.04102889,0.9619368,-0.2494814,-7.4305,-36.70216,-6.336274,1008.221
1.896077156,3.180015,2.47903,-1.828907,0.0351771,0.9653257,-0.2513504,-7.4305,-36.70216,-6.336274,1008.221
1.901101589,2.377134,2.659631,-1.52358,0.03673284,0.9560947,-0.2553002,-7.4305,-36.70216,-6.336274,1008.221
1.906126499,1.883054,3.081034,-1.218253,0.0416575,0.948837,-0.2592268,-7.4305,-36.70216,-6.336274,1008.221
1.911150932,2.006574,2.960633,-1.279318,0.03489394,0.9469138,-0.2697831,-7.4305,-36.70216,-6.336274,1008.221
1.916175842,2.809454,3.141234,-1.218253,0.04455632,0.9493836,-0.2649683,-7.4305,-36.70216,-6.336274,1008.221
1.921200275,3.797615,3.622837,-1.157187,0.03730412,0.9479218,-0.2721662,-7.4305,-36.70216,-6.336274,1008.221
1.926224709,5.094576,3.622837,-0.9129255,0.03383762,0.9547113,-0.2696831,-7.4305,-36.70216,-6.336274,1008.221
1.931248665,5.835697,4.224841,-0.7297295,0.03429111,0.9576046,-0.2643786,-7.4305,-36.70216,-6.336274,1008.221
1.936278820,5.712176,4.405442,-0.7297295,0.03128481,0.9667766,-0.2532452,-7.4305,-36.70216,-6.336274,1008.221
1.941298008,5.773936,4.16464,-0.6075987,0.03266671,0.97313,-0.253644,-7.4305,-36.70216,-6.336274,1008.221
1.946322918,5.218096,4.405442,-0.5465333,0.02682989,0.9754676,-0.2445116,-7.4305,-36.70216,-6.336274,1008.221
1.951347351,4.415215,4.224841,-0.6075987,0.03409268,0.9759605,-0.2382839,-7.4305,-36.70216,-6.336274,1008.221
1.956372261,3.674095,3.923839,-0.3633371,0.02599361,0.9637324,-0.2413083,-7.4305,-36.70216,-6.336274,1008.221
1.961396694,2.500654,3.743237,-0.1190755,0.02838948,0.966164,-0.2379265,-7.4305,-36.70216,-6.336274,1008.221
1.966421127,1.883054,3.562636,-0.05801012,0.02943067,0.9594213,-0.2495066,-7.4305,-36.70216,-6.336274,1008.221
1.971446037,2.191854,2.599431,0.1251861,0.02750668,0.9579981,-0.2571861,-7.052814,-37.43866,-6.336281,1008.221
1.976470470,2.871215,2.178028,0.7969054,0.03140056,0.9565176,-0.2509815,-7.052814,-37.43866,-6.336281,1008.221
1.981495380,3.118255,1.877027,1.102232,0.03191726,0.9536042,-0.2524557,-7.052814,-37.43866,-6.336281,1008.221
1.986519814,2.809454,1.275023,1.590756,0.03856435,0.9657996,-0.2460784,-7.052814,-37.43866,-6.336281,1008.221
1.991544247,2.006574,1.094422,1.835017,0.03318162,0.9706351,-0.2450559,-7.052814,-37.43866,-6.336281,1008.221
1.996569157,0.9566531,0.8536204,2.20141,0.03220538,0.9715382,-0.2354657,-7.052814,-37.43866,-6.336281,1008.221
2.001595497,-0.03150762,0.9740211,2.32354,0.03462487,0.9719858,-0.2273201,-7.052814,-37.43866,-6.336281,1008.225
2.006618500,-1.513749,1.034221,2.506737,0.02497466,0.9685176,-0.2287953,-7.052814,-37.43866,-6.336281,1008.225
2.011642933,-2.501909,0.9740211,2.262475,0.02448869,0.9685441,-0.2331048,-7.052814,-37.43866,-6.336281,1008.225
2.016667843,-3.49007,0.6730193,1.896083,0.02540278,0.9734278,-0.2330431,-7.052814,-37.43866,-6.336281,1008.225
2.021692276,-4.231191,0.4924182,1.224363,0.02885252,0.9681082,-0.2364652,-7.057892,-36.69904,-6.788937,1008.225
2.026716709,-5.404632,0.3720175,0.8579708,0.03218157,0.9735255,-0.2407083,-7.057892,-36.69904,-6.788937,1008.225
2.031741619,-6.145752,0.3118172,0.6137092,0.03705011,0.9711716,-0.2484036,-7.057892,-36.69904,-6.788937,1008.225
2.036766052,-6.331032,0.4924182,0.430513,0.04047373,0.9682676,-0.2484426,-7.057892,-36.69904,-6.788937,1008.225
2.041790962,-6.207512,0.612819,0.6747746,0.04342231,0.9644146,-0.2528036,-7.057892,-36.69904,-6.788937,1008.225
2.046815395,-5.281112,0.6730193,0.6137092,0.04779919,0.9629636,-0.2504301,-7.057892,-36.69904,-6.788937,1008.225
2.051839829,-4.601751,0.4924182,0.5526438,0.05014989,0.9693236,-0.2508294,-7.057892,-36.69904,-6.788937,1008.225
2.056864738,-4.416471,0.9138207,0.5526438,0.05254734,0.9717255,-0.2431378,-7.057892,-36.69904,-6.788937,1008.225
2.061890125,-4.787031,1.214823,0.4915784,0.05202499,0.9751298,-0.2421363,-7.057892,-36.69904,-6.788937,1008.225
2.066909790,-5.589912,1.756626,0.6137092,0.05486272,0.9814434,-0.2353529,-7.057892,-36.69904,-6.788937,1008.225
2.071934700,-7.195673,2.298429,0.9801016,0.04952531,0.9823474,-0.2300703,-7.427311,-37.07218,-6.337305,1008.225
2.076959133,-8.924954,2.840232,1.224363,0.04178534,0.9813306,-0.2315154,-7.427311,-37.07218,-6.337305,1008.225
2.081984043,-10.34544,2.840232,1.957148,0.04085344,0.9779364,-0.2353893,-7.427311,-37.07218,-6.337305,1008.225
2.087008476,-11.21008,2.47903,2.140344,0.030758,0.9710343,-0.2345135,-7.427311,-37.07218,-6.337305,1008.225
2.092032909,-11.08656,1.937227,2.079279,0.02266107,0.9583812,-0.2466425,-7.427311,-37.07218,-6.337305,1008.225
2.097057819,-9.727836,1.094422,1.896083,0.02024315,0.9579039,-0.2504783,-7.427311,-37.07218,-6.337305,1008.225
2.102082253,-8.122074,0.7332197,1.468625,0.01885152,0.9525027,-0.2467151,-7.427311,-37.07218,-6.337305,1008.225
2.107107163,-7.072153,0.3118172,1.224363,0.01886014,0.9519556,-0.2381019,-7.427311,-37.07218,-6.337305,1008.225
2.112131596,-6.886873,0.2516168,0.8579708,0.02467648,0.9515426,-0.2433785,-7.427311,-37.07218,-6.337305,1008.225
2.117156506,-7.627994,0.07101572,0.003055274,0.0299625,0.9554532,-0.2395006,-7.427311,-37.07218,-6.337305,1008.225
2.122180939,-8.430875,0.1914164,-0.05801012,0.03483174,0.9530861,-0.2452804,-7.426012,-37.07261,-6.792023,1008.225
2.127205372,-9.295515,0.2516168,-0.1801409,0.04299577,0.9594746,-0.244246,-7.426012,-37.07261,-6.792023,1008.223
2.132230282,-10.53072,0.3118172,-0.05801012,0.05131505,0.9521667,-0.2376395,-7.426012,-37.07261,-6.792023,1008.223
2.137254715,-11.76592,0.3118172,0.3083822,0.05419532,0.9546015,-0.2342578,-7.426012,-37.07261,-6.792023,1008.223
2.142279625,-13.00112,0.7332197,0.73584,0.05605353,0.9614955,-0.2418335,-7.426012,-37.07261,-6.792023,1008.223
2.147304058,-13.98928,0.5526186,1.590756,0.05324543,0.9527002,-0.2424228,-7.426012,-37.07261,-6.792023,1008.223
2.152328491,-13.68048,0.07101572,2.079279,0.04441351,0.96246,-0.2513924,-7.426012,-37.07261,-6.792023,1008.223
2.157353401,-13.30992,0.01081538,2.506737,0.04292854,0.9653571,-0.2484812,-7.426012,-37.07261,-6.792023,1008.223
2.162377834,-12.63056,-0.6513886,2.750998,0.03559109,0.9716564,-0.2493544,-7.426012,-37.07261,-6.792023,1008.223
2.167402744,-12.26,-1.012591,2.873129,0.03505286,0.976514,-0.2468977,-7.426012,-37.07261,-6.792023,1008.222
2.172427177,-12.26,-1.012591,2.689933,0.03165537,0.9770024,-0.2502417,-7.426012,-37.07261,-6.792023,1008.222
2.177452087,-12.19824,-0.3503868,2.32354,0.03848177,0.9731255,-0.2474218,-7.426012,-37.07261,-6.792023,1008.222
2.182476521,-12.13648,0.4322179,1.957148,0.04240178,0.9692295,-0.2446003,-7.426012,-37.07261,-6.792023,1008.222
2.187500954,-11.6424,1.214823,1.712886,0.04296242,0.9624109,-0.2456453,-7.426012,-37.07261,-6.792023,1008.222
2.192525864,-10.716,1.636225,1.468625,0.04261938,0.949743,-0.248201,-7.426012,-37.07261,-6.792023,1008.222
2.197549820,-9.419035,2.057628,1.52969,0.04564542,0.9390451,-0.2502548,-7.426012,-37.07261,-6.792023,1008.222
2.202574253,-7.689754,2.358629,1.407559,0.04324916,0.9370056,-0.2397435,-7.426012,-37.07261,-6.792023,1008.222
2.207599163,-5.960472,2.117828,1.285429,0.03552013,0.9350134,-0.241201,-7.426012,-37.07261,-6.792023,1008.222
2.212623596,-4.354711,1.455624,0.9801016,0.03738941,0.941314,-0.2334594,-7.426012,-37.07261,-6.792023,1008.222
2.217648029,-3.18127,1.214823,0.73584,0.0315175,0.9466209,-0.2305149,-7.794722,-37.07701,-7.703515,1008.222
2.222672939,-2.74895,0.9138207,0.6137092,0.03387135,0.9529213,-0.2222947,-7.794722,-37.07701,-7.703515,1008.222
2.227697372,-3.11951,0.5526186,0.430513,0.03816722,0.9587666,-0.2169548,-7.794722,-37.07701,-7.703515,1008.222
2.232722282,-3.73711,0.6730193,0.6747746,0.03965285,0.9562418,-0.2030997,-7.794722,-37.07701,-7.703515,1008.222
2.237746716,-3.61359,0.6730193,0.9190362,0.0392523,0.9485042,-0.213255,-7.794722,-37.07701,-7.703515,1008.222
2.242771626,-3.30479,0.5526186,1.52969,0.03783547,0.9451166,-0.2185653,-7.794722,-37.07701,-7.703515,1008.222
2.247796059,-2.316629,0.4322179,1.957148,0.0335193,0.9411926,-0.2195705,-7.794722,-37.07701,-7.703515,1008.222
2.252820492,-1.143188,0.1914164,2.445671,0.03447045,0.9426853,-0.2229044,-7.794722,-37.07701,-7.703515,1008.222
2.257845402,0.2772926,-0.1095854,2.812063,0.0305231,0.9490201,-0.2256947,-7.794722,-37.07701,-7.703515,1008.222
2.262869835,1.018413,-0.3503868,2.934194,0.02662672,0.9509323,-0.2237525,-7.794722,-37.07701,-7.703515,1008.222
2.265473843,1.141933,-0.711589,2.934194,0.02414932,0.9558069,-0.2256045,-7.794722,-37.07701,-7.703515,1008.222
2.273010731,0.2155325,-0.9523904,2.445671,0.02394989,0.9737971,-0.2172338,-7.797911,-36.70699,-7.702484,1008.222
2.275522709,-0.2167878,-0.711589,2.445671,0.02295938,0.9757383,-0.2167296,-7.797911,-36.70699,-7.702484,1008.222
2.280547142,-0.7726282,-0.5309879,1.957148,0.02340549,0.9791557,-0.2166863,-7.797911,-36.70699,-7.702484,1008.222
2.285571575,-1.328469,-0.04938498,1.407559,0.02684394,0.9748182,-0.2210537,-7.797911,-36.70699,-7.702484,1008.222
2.290596485,-1.637269,0.4924182,0.7969054,0.02685046,0.9743106,-0.2181868,-7.797911,-36.70699,-7.702484,1008.222
2.295621872,-1.760789,1.094422,0.3694476,0.03221574,0.9709581,-0.2220639,-7.797911,-36.70699,-7.702484,1008.222
2.300645828,-1.266708,1.636225,0.1862515,0.0293953,0.9631647,-0.2264716,-7.797911,-36.70699,-7.702484,1008.222
2.305670261,-0.7726282,1.997427,-0.1801409,0.03186938,0.9583529,-0.2337179,-7.797911,-36.70699,-7.702484,1008.222
2.310695171,0.03025243,2.298429,-0.4244025,0.03426931,0.9603232,-0.2341731,-7.797911,-36.70699,-7.702484,1008.222
2.315719605,0.7096129,2.178028,-0.3633371,0.02467048,0.9520402,-0.2448089,-7.425299,-36.70386,-8.155148,1008.222
2.320744038,1.759534,2.358629,-0.4854679,0.03095091,0.9535517,-0.2457511,-7.425299,-36.70386,-8.155148,1008.222
2.325768948,2.685935,1.937227,-0.7297295,0.02360374,0.9608032,-0.2432598,-7.425299,-36.70386,-8.155148,1008.222
2.330793381,3.427055,1.816826,-1.035056,0.02794639,0.9623051,-0.24468,-7.425299,-36.70386,-8.155148,1008.222
2.335818291,3.612335,1.636225,-1.157187,0.02648208,0.9632742,-0.2451457,-7.425299,-36.70386,-8.155148,1008.222
2.340842724,3.735855,1.275023,-1.279318,0.02209654,0.9656577,-0.2412815,-7.425299,-36.70386,-8.155148,1008.222
2.345867634,3.488815,1.214823,-1.279318,0.02598867,0.9642103,-0.2398656,-7.425299,-36.70386,-8.155148,1008.222
2.350892067,3.427055,0.9138207,-1.279318,0.02844366,0.9612965,-0.2394252,-7.425299,-36.70386,-8.155148,1008.222
2.355916500,3.612335,1.214823,-1.340383,0.0246479,0.9540043,-0.2466994,-7.425299,-36.70386,-8.155148,1008.222
2.360941410,4.538735,1.034221,-1.218253,0.02848882,0.9573681,-0.2356441,-7.425299,-36.70386,-8.155148,1008.222
2.365965843,5.094576,0.9740211,-1.035056,0.02412469,0.9574252,-0.2480922,-7.796797,-36.70735,-8.092243,1008.222
2.370990753,5.650416,0.9138207,-1.096122,0.03092723,0.9559211,-0.235664,-7.796797,-36.70735,-8.092243,1008.222
2.376015186,5.897457,0.4924182,-1.218253,0.02894499,0.9598266,-0.2380075,-7.796797,-36.70735,-8.092243,1008.222
2.381039620,6.082736,0.4322179,-1.401449,0.03189446,0.9559571,-0.2399742,-7.796797,-36.70735,-8.092243,1008.222
2.386064530,5.835697,0.1914164,-1.279318,0.02645241,0.9661413,-0.2364889,-7.796797,-36.70735,-8.092243,1008.222
2.391088963,5.712176,0.2516168,-1.52358,0.02995843,0.9559146,-0.2356635,-7.796797,-36.70735,-8.092243,1008.222
2.396113873,5.465136,-0.2299861,-1.767841,0.02937149,0.965152,-0.2317142,-7.796797,-36.70735,-8.092243,1008.222
2.401138306,4.971056,0.01081538,-1.889972,0.02894797,0.9597704,-0.229867,-7.796797,-36.70735,-8.092243,1008.222
2.406163216,4.909296,-0.2299861,-2.012103,0.03516152,0.9671578,-0.2340866,-7.796797,-36.70735,-8.092243,1008.222
2.411187649,4.600496,-0.1697858,-2.134233,0.02848086,0.9582875,-0.2274911,-7.796797,-36.70735,-8.092243,1008.222
2.416212082,4.847536,-0.04938498,-2.012103,0.02988167,0.9627462,-0.2360553,-8.10096,-37.44999,-7.706259,1008.222
2.421236992,5.032816,-0.5309879,-2.378495,0.02355534,0.9655617,-0.2259587,-8.10096,-37.44999,-7.706259,1008.222
2.426261425,5.094576,-0.4105872,-2.256364,0.02302735,0.9694571,-0.2254299,-8.10096,-37.44999,-7.706259,1008.222
2.431286335,4.909296,-0.4707876,-2.195299,0.02254842,0.9689662,-0.2254359,-8.10096,-37.44999,-7.706259,1008.222
2.436310768,4.229935,-0.7717893,-2.134233,0.02246491,0.9766941,-0.2143226,-8.10096,-37.44999,-7.706259,1008.222
2.441335201,3.859375,-0.8319896,-2.073168,0.0194927,0.9825311,-0.2147254,-8.10096,-37.44999,-7.706259,1008.222
2.446360111,3.180015,-1.072791,-1.64571,0.02394232,0.9743244,-0.2229739,-8.10096,-37.44999,-7.706259,1008.222
2.451384544,3.056495,-1.193192,-1.584645,0.01958185,0.9743121,-0.225366,-8.10096,-37.44999,-7.706259,1008.222
2.456409454,3.303535,-1.494194,-1.340383,0.02251047,0.9723738,-0.2244346,-8.10096,-37.44999,-7.706259,1008.222
2.461433888,3.488815,-1.554394,-1.035056,0.02302135,0.9699548,-0.2268603,-8.10096,-37.44999,-7.706259,1008.222
2.466454506,3.550575,-1.915596,-0.8518602,0.02491873,0.9734181,-0.2320852,-7.797911,-36.70699,-7.702484,1008.222
2.471479416,3.735855,-1.795196,-0.7297295,0.02547674,0.9666491,-0.2403131,-7.797911,-36.70699,-7.702484,1008.222
2.476503849,3.365295,-2.216598,-0.668664,0.02639787,0.9710154,-0.2359478,-7.797911,-36.70699,-7.702484,1008.222
2.481528282,3.056495,-2.336999,-0.1190755,0.03175082,0.9686646,-0.2436434,-7.797911,-36.70699,-7.702484,1008.222
2.486553192,2.500654,-2.638,0.1251861,0.0307559,0.9710739,-0.2402598,-7.797911,-36.70699,-7.702484,1008.222
2.491577625,2.006574,-2.698201,0.3694476,0.02876202,0.9759682,-0.2445064,-7.797911,-36.70699,-7.702484,1008.228
2.614680767,-3.11951,-0.1095854,0.73584,0.04449019,0.9563993,-0.2212988,-7.429201,-36.70259,-6.790992,1008.229
2.619705677,-2.501909,0.4322179,0.4915784,0.0479237,0.9525396,-0.2242235,-7.429201,-36.70259,-6.790992,1008.229
2.622217655,-1.822549,0.7332197,0.430513,0.04745343,0.9511161,-0.2304671,-7.429201,-36.70259,-6.790992,1008.229
2.627246857,-0.9579083,1.154622,0.4915784,0.04355916,0.9529887,-0.2227785,-7.429201,-36.70259,-6.790992,1008.229
2.632266998,0.09201248,1.335223,0.3694476,0.04454489,0.9515219,-0.221361,-7.429201,-36.70259,-6.790992,1008.229
2.637291432,0.5243328,1.877027,0.430513,0.03871674,0.9529269,-0.2184663,-7.429201,-36.70259,-6.790992,1008.229
2.642315865,0.2772926,1.816826,0.2473169,0.04349456,0.9588217,-0.2198307,-7.429201,-36.70259,-6.790992,1008.229
2.647340775,-0.2785478,2.117828,0.2473169,0.04206925,0.9563635,-0.2184245,-7.429201,-36.70259,-6.790992,1008.229
2.652365208,-0.6491081,1.997427,0.2473169,0.03807742,0.9666134,-0.2230805,-7.429201,-36.70259,-6.790992,1008.229
2.657390118,-0.6491081,2.178028,0.06412067,0.03618625,0.9622637,-0.2307972,-7.429201,-36.70259,-6.790992,1008.229
2.662414551,-0.1550277,1.395424,0.1862515,0.03428306,0.9592949,-0.2265238,-7.799212,-36.70656,-7.247766,1008.229
2.667439461,0.2772926,1.455624,0.1862515,0.03429842,0.9578515,-0.2294156,-7.799212,-36.70656,-7.247766,1008.229
2.672460079,0.8948931,0.9138207,0.1862515,0.02989099,0.9621858,-0.2255266,-7.799212,-36.70656,-7.247766,1008.229
2.677484512,1.388973,0.6730193,-0.05801012,0.02836738,0.9685036,-0.2235296,-7.799212,-36.70656,-7.247766,1008.229
2.682508946,2.006574,0.3118172,0.1862515,0.02848773,0.9577734,-0.2236664,-7.799212,-36.70656,-7.247766,1008.229
2.687533856,2.068334,0.1312161,-0.05801012,0.02892254,0.9621728,-0.2245684,-7.799212,-36.70656,-7.247766,1008.229
2.692558289,2.130094,-0.04938498,-0.05801012,0.02926681,0.9748177,-0.2186607,-7.799212,-36.70656,-7.247766,1008.229
2.697583199,2.068334,-0.6513886,-0.1190755,0.02790293,0.9665859,-0.2288217,-7.799212,-36.70656,-7.247766,1008.231
2.702607632,1.759534,-0.6513886,-0.3022717,0.02691383,0.9685006,-0.2244866,-7.799212,-36.70656,-7.247766,1008.231
2.707632065,1.574254,-0.89219,-0.3633371,0.02643704,0.9675847,-0.2335971,-7.799212,-36.70656,-7.247766,1008.231
2.712656975,1.512494,-1.072791,-0.3633371,0.03274745,0.9666079,-0.2273875,-7.429201,-36.70259,-6.790992,1008.231
2.717681408,1.883054,-1.494194,-0.4244025,0.03568369,0.9637568,-0.2355669,-7.429201,-36.70259,-6.790992,1008.231
2.722706318,2.006574,-1.554394,-0.4244025,0.03322253,0.9671714,-0.2379165,-7.429201,-36.70259,-6.790992,1008.231
2.727730751,2.130094,-1.975797,-0.3022717,0.03322358,0.9671516,-0.2350433,-7.429201,-36.70259,-6.790992,1008.231
2.732755661,1.944814,-1.855396,-0.05801012,0.03804109,0.9696059,-0.2326204,-7.429201,-36.70259,-6.790992,1008.231
2.737780094,1.512494,-2.216598,0.003055274,0.03708114,0.9686636,-0.2383786,-7.429201,-36.70259,-6.790992,1008.231
2.742804527,1.327213,-2.156398,0.1862515,0.03755319,0.9696686,-0.2421973,-7.429201,-36.70259,-6.790992,1008.231
2.747829437,1.388973,-2.276798,0.430513,0.03569131,0.9628441,-0.2446777,-7.429201,-36.70259,-6.790992,1008.231
2.752857208,1.265453,-2.698201,0.4915784,0.03270938,0.9696334,-0.241716,-7.429201,-36.70259,-6.790992,1008.231
2.757878781,1.203693,-3.059403,0.6747746,0.03033504,0.9652574,-0.2460805,-7.429201,-36.70259,-6.790992,1008.231
2.762903213,0.833133,-3.240004,0.6137092,0.03415675,0.9701373,-0.2426683,-7.4279,-36.70301,-7.24571,1008.231
2.767927647,0.5243328,-3.480806,0.6137092,0.03613159,0.9667557,-0.2455859,-7.4279,-36.70301,-7.24571,1008.231
2.772952557,-0.09326766,-3.420605,0.73584,0.03465756,0.9686772,-0.2426872,-7.4279,-36.70301,-7.24571,1008.231
2.777976990,-0.7108681,-3.119603,0.9801016,0.04093869,0.9701755,-0.241714,-7.4279,-36.70301,-7.24571,1008.231
2.780488968,-0.6491081,-3.059403,1.102232,0.0356479,0.9667394,-0.2436702,-7.4279,-36.70301,-7.24571,1008.231
2.785513878,-0.9579083,-2.638,0.8579708,0.04480189,0.9711964,-0.2445767,-7.4279,-36.70301,-7.24571,1008.231
2.790538311,-1.390229,-2.4574,1.163298,0.03998543,0.9687224,-0.2441264,-7.4279,-36.70301,-7.24571,1008.231
2.795563221,-1.390229,-2.336999,1.285429,0.03857425,0.9648439,-0.248964,-7.4279,-36.70301,-7.24571,1008.231
2.800587654,-1.081428,-2.276798,1.407559,0.04046913,0.9687388,-0.2460421,-7.4279,-36.70301,-7.24571,1008.231
2.805612087,-1.143188,-2.276798,1.52969,0.04144235,0.9682772,-0.248922,-7.4279,-36.70301,-7.24571,1008.231
2.810636997,-1.266708,-2.035997,1.712886,0.04384793,0.9697564,-0.2489046,-7.426012,-37.07261,-6.792023,1008.231
2.815661430,-1.760789,-2.336999,1.835017,0.04725973,0.9678444,-0.2513254,-7.426012,-37.07261,-6.792023,1008.231
2.820686340,-2.440149,-2.096197,1.651821,0.03855167,0.9668081,-0.2508546,-7.426012,-37.07261,-6.792023,1008.231
2.825710773,-2.93423,-1.855396,2.018213,0.04681008,0.9648785,-0.246095,-7.426012,-37.07261,-6.792023,1008.231
2.830735683,-3.11951,-1.674795,1.896083,0.03758199,0.9668182,-0.2532484,-7.426012,-37.07261,-6.792023,1008.231
2.835760117,-3.30479,-1.494194,2.079279,0.04097436,0.9668108,-0.2489404,-7.426012,-37.07261,-6.792023,1008.231
2.840784550,-3.24303,-1.433993,2.140344,0.0409892,0.9653773,-0.2532688,-7.426012,-37.07261,-6.792023,1008.231
2.845809460,-2.99599,-1.012591,2.018213,0.03762011,0.9634072,-0.2537708,-7.426012,-37.07261,-6.792023,1008.231
2.850833893,-3.05775,-1.193192,2.018213,0.03662518,0.9658164,-0.2503872,-7.426012,-37.07261,-6.792023,1008.231
2.855858803,-2.93423,-1.193192,2.079279,0.03422665,0.9638198,-0.2461011,-7.426012,-37.07261,-6.792023,1008.231
2.860888004,-2.87247,-1.193192,2.20141,0.03811016,0.9629195,-0.2532984,-8.478058,-37.08266,-6.797846,1008.233
2.865903854,-2.87247,-1.132991,2.018213,0.03572203,0.9599572,-0.2504613,-8.478058,-37.08266,-6.797846,1008.233
2.870928287,-2.99599,-1.313593,2.32354,0.03035763,0.9632933,-0.2441899,-8.478058,-37.08266,-6.797846,1008.233
2.875957012,-2.93423,-1.373793,2.140344,0.03667687,0.9613806,-0.2437391,-8.478058,-37.08266,-6.797846,1008.233
2.880977631,-2.93423,-1.253392,1.957148,0.0318447,0.9603566,-0.2413548,-8.478058,-37.08266,-6.797846,1008.233
2.886002541,-2.87247,-1.193192,2.018213,0.03671551,0.9579598,-0.2428249,-8.478058,-37.08266,-6.797846,1008.233
2.891028881,-2.440149,-1.253392,1.835017,0.03041745,0.9579347,-0.245216,-8.478058,-37.08266,-6.797846,1008.233
2.896051884,-2.254869,-1.193192,1.835017,0.03572006,0.9603789,-0.2408779,-8.478058,-37.08266,-6.797846,1008.233
2.901076317,-1.946069,-0.8319896,1.651821,0.03527413,0.9569583,-0.2404424,-8.478058,-37.08266,-6.797846,1008.233
2.906100750,-1.699029,-0.4105872,1.590756,0.03723786,0.9545555,-0.2438264,-7.432388,-36.33256,-6.789961,1008.233
2.911125660,-1.451989,-0.3503868,1.346494,0.03524148,0.9598814,-0.2399262,-7.432388,-36.33256,-6.789961,1008.233
2.916150093,-1.451989,-0.1095854,1.285429,0.03529177,0.9554719,-0.237109,-7.432388,-36.33256,-6.789961,1008.233
2.921175003,-1.266708,0.07101572,0.9190362,0.03433391,0.9544901,-0.2371209,-7.432388,-36.33256,-6.789961,1008.233
2.926199436,-1.019668,0.3118172,1.102232,0.03867075,0.9564863,-0.2394926,-7.432388,-36.33256,-6.789961,1008.233
2.931224346,-1.019668,0.1914164,0.8579708,0.03481708,0.9545164,-0.2404732,-7.432388,-36.33256,-6.789961,1008.233
2.936248779,-0.587348,0.3720175,0.8579708,0.03581818,0.9516063,-0.2419476,-7.432388,-36.33256,-6.789961,1008.233
2.941272736,-0.4638279,0.4924182,0.8579708,0.03725374,0.9531022,-0.2452817,-7.432388,-36.33256,-6.789961,1008.231
2.946297169,-0.2785478,0.4924182,0.9190362,0.02996657,0.9549919,-0.2433376,-7.432388,-36.33256,-6.789961,1008.231
2.951327324,0.09201248,0.4924182,0.6137092,0.02855802,0.9510639,-0.2409924,-7.432388,-36.33256,-6.789961,1008.231
2.956346512,0.6478529,0.612819,0.6137092,0.02707642,0.9535128,-0.2438337,-7.424711,-37.07303,-7.246741,1008.231
2.961371422,0.8948931,0.5526186,0.430513,0.02613742,0.9510216,-0.2371603,-7.424711,-37.07303,-7.246741,1008.231
2.966396332,1.388973,0.2516168,0.5526438,0.02562939,0.9530023,-0.2419237,-7.424711,-37.07303,-7.246741,1008.231
2.971420288,1.450734,0.3720175,0.3694476,0.02804272,0.9539508,-0.2356874,-7.424711,-37.07303,-7.246741,1008.231
2.976450443,1.759534,0.1312161,0.3083822,0.03147746,0.950068,-0.23526,-7.424711,-37.07303,-7.246741,1008.231
2.981469631,1.883054,0.1312161,0.2473169,0.02561298,0.9544655,-0.2419051,-7.424711,-37.07303,-7.246741,1008.231
2.986495018,1.821294,0.01081538,0.003055274,0.02657171,0.9554309,-0.2394989,-7.424711,-37.07303,-7.246741,1008.231
2.991518974,2.377134,-0.1697858,0.06412067,0.02903747,0.9515449,-0.2395498,-7.424711,-37.07303,-7.246741,1008.231
2.996543884,2.500654,-0.2901864,-0.05801012,0.02368633,0.9534772,-0.2419166,-7.424711,-37.07303,-7.246741,1008.231
3.001568317,3.056495,-0.2299861,0.003055274,0.02517711,0.9500858,-0.2438762,-7.424711,-37.07303,-7.246741,1008.231
3.006592751,3.488815,-0.5309879,-0.1801409,0.02466978,0.9520534,-0.2467243,-7.424711,-37.07303,-7.246741,1008.231
3.011617661,3.859375,-0.4105872,-0.3022717,0.0284493,0.9608054,-0.2389525,-7.424711,-37.07303,-7.246741,1008.231
3.016642094,3.921135,-0.5309879,-0.3022717,0.02555298,0.9598272,-0.2413578,-7.424711,-37.07303,-7.246741,1008.231
3.021667004,3.982895,-0.5309879,-0.6075987,0.0298471,0.9657056,-0.2408066,-7.424711,-37.07303,-7.246741,1008.231
3.026691437,3.612335,-0.4105872,-0.6075987,0.02846747,0.9593093,-0.2341826,-7.424711,-37.07303,-7.246741,1008.231
3.031715870,3.674095,-0.5309879,-0.668664,0.02937154,0.9647666,-0.2465651,-7.424711,-37.07303,-7.246741,1008.231
3.036740780,3.859375,-0.5309879,-0.6075987,0.03035903,0.9632668,-0.2403591,-7.424711,-37.07303,-7.246741,1008.231
3.041765213,4.044655,-0.5309879,-0.1190755,0.02894872,0.9593719,-0.2428024,-7.424711,-37.07303,-7.246741,1008.231
3.046790123,4.291696,-0.8319896,-0.3022717,0.02702311,0.9583638,-0.2399407,-7.424711,-37.07303,-7.246741,1008.231
3.051814556,4.415215,-1.072791,-0.4854679,0.03281472,0.96034,-0.2380033,-7.424711,-37.07303,-7.246741,1008.231
3.056839466,4.662256,-1.072791,-0.1801409,0.02650466,0.9613101,-0.2432551,-7.800512,-36.70613,-6.793047,1008.231
3.061863899,5.032816,-1.193192,-0.3633371,0.02505199,0.9612907,-0.2418178,-7.800512,-36.70613,-6.793047,1008.231
3.066884518,4.847536,-1.373793,-0.4244025,0.02742033,0.9661642,-0.2388837,-7.800512,-36.70613,-6.793047,1008.231
3.071908951,4.600496,-1.373793,-0.3633371,0.02698499,0.9617746,-0.2394183,-7.800512,-36.70613,-6.793047,1008.231
3.076933861,4.291696,-1.313593,-0.3022717,0.03274943,0.9661862,-0.2369709,-7.800512,-36.70613,-6.793047,1008.231
3.081958294,4.106415,-1.494194,-0.3633371,0.02936974,0.965185,-0.2365028,-7.800512,-36.70613,-6.793047,1008.231
3.086983204,4.168175,-1.433993,-0.3633371,0.03568899,0.9632723,-0.236052,-7.800512,-36.70613,-6.793047,1008.231
3.092007637,3.859375,-1.433993,-0.4244025,0.03124117,0.9710606,-0.2378657,-7.800512,-36.70613,-6.793047,1008.231
3.097032547,3.735855,-1.494194,-0.4244025,0.03132923,0.9632469,-0.2365286,-7.800512,-36.70613,-6.793047,1008.231
3.102060795,3.735855,-1.313593,-0.3633371,0.03806635,0.9672067,-0.2383978,-7.800512,-36.70613,-6.793047,1008.236
3.107081413,3.612335,-1.072791,-0.3022717,0.03610739,0.969135,-0.2369353,-8.113125,-36.33907,-6.793729,1008.236
3.112106323,3.674095,-1.132991,-0.3022717,0.03567752,0.9642578,-0.2374762,-8.113125,-36.33907,-6.793729,1008.236
3.117130756,3.674095,-1.072791,-0.3633371,0.03519999,0.9637403,-0.2336512,-8.113125,-36.33907,-6.793729,1008.236
3.122155666,3.427055,-0.9523904,-0.1801409,0.04002548,0.9652752,-0.2393814,-8.113125,-36.33907,-6.793729,1008.236
3.127180100,3.427055,-1.193192,-0.2412063,0.03664632,0.9642642,-0.2374767,-8.113125,-36.33907,-6.793729,1008.236
3.132204533,3.118255,-0.8319896,-0.2412063,0.04046681,0.9691672,-0.2374164,-8.113125,-36.33907,-6.793729,1008.236
3.137229443,2.932975,-0.711589,-0.1801409,0.03858939,0.9637892,-0.2374839,-8.113125,-36.33907,-6.793729,1008.236
3.142253876,2.747694,-0.6513886,-0.2412063,0.03373324,0.9647558,-0.240821,-8.113125,-36.33907,-6.793729,1008.236
3.147278786,2.500654,-0.1697858,-0.1801409,0.03710901,0.966215,-0.2369732,-8.113125,-36.33907,-6.793729,1008.236
3.152303219,2.624174,-0.3503868,-0.1190755,0.03426634,0.9603792,-0.2423138,-7.426012,-37.07261,-6.792023,1008.236
3.157328129,2.685935,-0.2299861,-0.2412063,0.03804341,0.9691775,-0.2412461,-7.426012,-37.07261,-6.792023,1008.236
3.162352562,2.377134,0.01081538,-0.2412063,0.03810005,0.9642639,-0.2360408,-7.426012,-37.07261,-6.792023,1008.236
3.167376995,2.438894,-0.1095854,-0.1801409,0.03327002,0.9628148,-0.242761,-7.426012,-37.07261,-6.792023,1008.236
3.172401905,2.500654,-0.3503868,-0.05801012,0.03669061,0.9603523,-0.2360898,-7.426012,-37.07261,-6.792023,1008.236
3.177426338,2.130094,-0.1095854,-0.3633371,0.03852939,0.9691511,-0.2369366,-7.426012,-37.07261,-6.792023,1008.236
3.182451248,2.191854,-0.2299861,-0.1190755,0.03568794,0.9632921,-0.2389251,-7.426012,-37.07261,-6.792023,1008.236
3.187475681,2.006574,0.3720175,-0.2412063,0.03714219,0.9632819,-0.2360527,-7.426012,-37.07261,-6.792023,1008.236
3.192500114,2.130094,0.1914164,-0.2412063,0.03173704,0.9700784,-0.2364419,-7.426012,-37.07261,-6.792023,1008.236
3.197525024,2.006574,0.3118172,-0.3633371,0.04003694,0.9642899,-0.2379572,-7.426012,-37.07261,-6.792023,1008.236
3.202549458,2.068334,0.5526186,-0.4244025,0.0415122,0.9623451,-0.237504,-7.801811,-36.70571,-6.338329,1008.236
3.207574368,1.636014,0.7332197,-0.4244025,0.03853346,0.9686897,-0.2407737,-7.801811,-36.70571,-6.338329,1008.236
3.212598801,1.574254,1.034221,-0.3633371,0.03859149,0.9637496,-0.2317375,-7.801811,-36.70571,-6.338329,1008.236
3.217622757,1.450734,1.335223,-0.3022717,0.04196942,0.9647838,-0.2369943,-7.801811,-36.70571,-6.338329,1008.236
3.222648144,1.203693,1.395424,-0.3022717,0.03911668,0.959907,-0.2399281,-7.801811,-36.70571,-6.338329,1008.236
3.227672100,0.9566531,1.455624,-0.2412063,0.03716936,0.9608466,-0.2365627,-7.801811,-36.70571,-6.338329,1008.238
3.232696533,0.7096129,1.515824,-0.05801012,0.03861941,0.9609156,-0.2451829,-7.801811,-36.70571,-6.338329,1008.238
3.237721443,0.5860928,1.576025,-0.3022717,0.0312396,0.9710903,-0.2421755,-7.801811,-36.70571,-6.338329,1008.238
3.242745876,0.4625728,1.515824,-0.1190755,0.03368947,0.9686577,-0.2407712,-7.801811,-36.70571,-6.338329,1008.238
3.247770786,0.1537725,1.576025,-0.1801409,0.03811576,0.9628139,-0.2379749,-7.801811,-36.70571,-6.338329,1008.238
3.252795219,0.5243328,1.395424,-0.2412063,0.03369337,0.9681996,-0.2450872,-7.801811,-36.70571,-6.338329,1008.238
3.257820129,0.4008127,1.576025,-0.1190755,0.03425575,0.9613481,-0.2413436,-7.801811,-36.70571,-6.338329,1008.238
3.262844563,0.4008127,1.275023,0.003055274,0.03180146,0.9642487,-0.2398685,-7.801811,-36.70571,-6.338329,1008.238
3.267867088,0.2155325,1.576025,-0.3022717,0.03088596,0.9593913,-0.243761,-7.801811,-36.70571,-6.338329,1008.239
3.272889614,0.2155325,1.455624,0.003055274,0.03616157,0.9642676,-0.2384341,-7.801811,-36.70571,-6.338329,1008.239
3.277914524,0.03025243,1.335223,-0.1190755,0.03180023,0.9642718,-0.2432205,-7.801811,-36.70571,-6.338329,1008.239
3.280426979,-0.03150762,1.335223,-0.1190755,0.03127242,0.9681638,-0.2422128,-7.801811,-36.70571,-6.338329,1008.239
3.285452843,-0.3403079,1.214823,0.06412067,0.03426122,0.9608604,-0.2413498,-7.801811,-36.70571,-6.338329,1008.239
3.290476322,-0.7108681,1.214823,0.003055274,0.03225693,0.9667203,-0.2441474,-7.801811,-36.70571,-6.338329,1008.239
3.295500755,-0.7108681,0.9138207,-0.05801012,0.03570225,0.9618686,-0.2446901,-7.801811,-36.70571,-6.338329,1008.239
3.300525665,-0.6491081,0.612819,0.06412067,0.02942077,0.9603769,-0.246621,-8.115725,-36.33822,-5.884293,1008.239
3.305550098,-0.4020679,0.612819,0.06412067,0.02843346,0.9618734,-0.2523482,-8.115725,-36.33822,-5.884293,1008.238
3.310575008,-0.4638279,0.2516168,0.1251861,0.03324126,0.9652799,-0.2465608,-8.115725,-36.33822,-5.884293,1008.238
3.315599442,-0.3403079,0.1914164,0.1251861,0.02747084,0.961366,-0.2504385,-8.115725,-36.33822,-5.884293,1008.238
3.320624352,-0.587348,-0.04938498,0.2473169,0.03143001,0.9540392,-0.2452663,-8.115725,-36.33822,-5.884293,1008.238
3.325648785,-0.525588,-0.04938498,0.06412067,0.03468881,0.9657806,-0.2470342,-8.115725,-36.33822,-5.884293,1008.238
3.330673218,-0.7108681,-0.1095854,0.1251861,0.03131356,0.9643115,-0.2494454,-8.115725,-36.33822,-5.884293,1008.238
3.335698128,-0.9579083,-0.1095854,-0.05801012,0.03180518,0.9637939,-0.2446633,-8.115725,-36.33822,-5.884293,1008.238
3.340722561,-1.081428,-0.04938498,0.06412067,0.03469498,0.9652796,-0.245125,-8.115725,-36.33822,-5.884293,1008.238
3.345747471,-1.081428,0.01081538,0.06412067,0.03765748,0.960395,-0.2413578,-8.115725,-36.33822,-5.884293,1008.239
3.350771427,-1.451989,-0.1095854,0.06412067,0.039059,0.9648405,-0.2480066,-8.113125,-36.33907,-6.793729,1008.239
3.355795860,-1.637269,0.07101572,0.1862515,0.04100648,0.9638976,-0.2508931,-8.113125,-36.33907,-6.793729,1008.239
3.360821724,-1.390229,0.01081538,0.1862515,0.03621348,0.959443,-0.246158,-8.113125,-36.33907,-6.793729,1008.239
3.365845203,-1.204948,0.1312161,0.2473169,0.03616884,0.9633613,-0.2485026,-8.113125,-36.33907,-6.793729,1008.239
3.370869637,-1.390229,0.3118172,0.2473169,0.03861836,0.9609354,-0.2480561,-8.113125,-36.33907,-6.793729,1008.239
3.375894547,-1.451989,0.1914164,0.3083822,0.03232047,0.960907,-0.2499683,-8.113125,-36.33907,-6.793729,1008.239
3.380919933,-1.390229,0.4924182,0.4915784,0.03375884,0.9623501,-0.2456406,-8.113125,-36.33907,-6.793729,1008.239
3.385943890,-0.9579083,0.2516168,0.3694476,0.03430166,0.9570212,-0.2504979,-8.113125,-36.33907,-6.793729,1008.244
3.390968323,-0.9579083,0.2516168,0.430513,0.03090627,0.95747,-0.2480957,-8.113125,-36.33907,-6.793729,1008.244
3.395992756,-1.081428,0.07101572,0.5526438,0.02989458,0.961349,-0.2456511,-8.113125,-36.33907,-6.793729,1008.244
3.401018143,-0.9579083,0.1914164,0.430513,0.03279498,0.9618659,-0.247083,-8.111237,-36.70867,-6.340042,1008.244
3.406042099,-1.266708,0.1312161,0.2473169,0.02935565,0.9662199,-0.2451098,-8.111237,-36.70867,-6.340042,1008.244
3.411067009,-1.328469,0.07101572,0.2473169,0.031805,0.9637972,-0.2451422,-8.111237,-36.70867,-6.340042,1008.244
3.416091442,-1.637269,-0.2901864,0.6137092,0.03180237,0.9638467,-0.2523251,-8.111237,-36.70867,-6.340042,1008.244
3.421116352,-1.884309,0.1914164,0.3694476,0.03817383,0.9574882,-0.2437896,-8.111237,-36.70867,-6.340042,1008.244
3.426140785,-2.069589,-0.1095854,0.4915784,0.03718582,0.9589979,-0.2514322,-8.111237,-36.70867,-6.340042,1008.244
3.431165218,-2.069589,-0.1697858,0.5526438,0.03672365,0.9570372,-0.2504991,-8.111237,-36.70867,-6.340042,1008.239
3.436190128,-1.637269,-0.1095854,0.5526438,0.04011305,0.957086,-0.2543317,-8.111237,-36.70867,-6.340042,1008.239
3.441214562,-1.204948,-0.1095854,0.6747746,0.03818954,0.9560384,-0.2457237,-8.111237,-36.70867,-6.340042,1008.239
3.446239472,-1.081428,-0.04938498,0.7969054,0.04203581,0.9585323,-0.2500043,-8.111237,-36.70867,-6.340042,1008.239
3.451263905,-1.266708,-0.2299861,0.9190362,0.0362119,0.9594727,-0.2504678,-7.800512,-36.70613,-6.793047,1008.239
3.456288338,-1.451989,-0.2901864,0.7969054,0.03908036,0.9628995,-0.249468,-7.800512,-36.70613,-6.793047,1008.239
3.461313248,-1.575509,-0.2299861,0.9190362,0.0298759,0.9628552,-0.2518576,-7.800512,-36.70613,-6.793047,1008.239
3.466333866,-1.513749,-0.2299861,0.8579708,0.03373626,0.9643143,-0.2475313,-7.800512,-36.70613,-6.793047,1008.239
3.471358299,-1.143188,-0.3503868,0.9190362,0.02990907,0.9599221,-0.2509372,-7.800512,-36.70613,-6.793047,1008.245
3.476383209,-1.328469,-0.1697858,0.8579708,0.03524166,0.9598781,-0.2394473,-7.800512,-36.70613,-6.793047,1008.245
3.481407642,-1.204948,-0.1095854,0.8579708,0.02891607,0.9622949,-0.2422862,-7.800512,-36.70613,-6.793047,1008.245
3.486432552,-1.451989,-0.1697858,0.9801016,0.03568566,0.963335,-0.2451503,-7.800512,-36.70613,-6.793047,1008.245
3.491456986,-1.513749,-0.2901864,1.041167,0.04155579,0.9584466,-0.2380326,-7.800512,-36.70613,-6.793047,1008.245
3.496481419,-1.390229,-0.2299861,0.9801016,0.03765591,0.9604247,-0.2456675,-8.109938,-36.70909,-6.79476,1008.245
3.501506329,-1.451989,0.01081538,1.041167,0.04009502,0.9589643,-0.2437719,-8.109938,-36.70909,-6.79476,1008.245
3.506530762,-1.451989,-0.1095854,1.102232,0.03720026,0.9579565,-0.2418675,-8.109938,-36.70909,-6.79476,1008.245
3.511555672,-1.328469,-0.3503868,1.224363,0.03093362,0.9550313,-0.2481267,-8.109938,-36.70909,-6.79476,1008.245
3.516580105,-1.019668,-0.5309879,1.285429,0.02665026,0.9481808,-0.2491693,-8.109938,-36.70909,-6.79476,1008.245
3.521605015,-0.4638279,-0.4105872,1.285429,0.03191778,0.9535943,-0.2510191,-8.109938,-36.70909,-6.79476,1008.245
3.526629448,-0.2785478,-0.8319896,1.224363,0.02953286,0.9501872,-0.2544134,-8.109938,-36.70909,-6.79476,1008.245
3.531653881,0.1537725,-0.89219,1.041167,0.0371874,0.9589682,-0.2471225,-8.109938,-36.70909,-6.79476,1008.245
3.536678791,0.03025243,-0.9523904,0.9801016,0.02751,0.9579354,-0.2480877,-8.109938,-36.70909,-6.79476,1008.245
3.541703224,0.2155325,-1.072791,0.8579708,0.03374155,0.9638298,-0.2480163,-8.109938,-36.70909,-6.79476,1008.245
3.546728134,0.2772926,-1.132991,1.041167,0.03477686,0.9579669,-0.2456971,-7.808187,-35.96566,-6.336267,1008.245
3.551752567,0.1537725,-0.89219,0.73584,0.03329102,0.9608803,-0.2451802,-7.808187,-35.96566,-6.336267,1008.244
3.556777001,0.09201248,-0.7717893,0.7969054,0.03571249,0.9609063,-0.246618,-7.808187,-35.96566,-6.336267,1008.244
3.561801911,0.4008127,-0.5911882,0.73584,0.03283682,0.9580003,-0.2524002,-7.808187,-35.96566,-6.336267,1008.244
3.566826344,0.3390526,-0.4105872,0.4915784,0.03237234,0.9564678,-0.2428414,-7.808187,-35.96566,-6.336267,1008.244
3.571851254,0.4008127,-0.4707876,0.5526438,0.03286098,0.9560065,-0.2461998,-7.808187,-35.96566,-6.336267,1008.244
3.576875687,0.5860928,-0.5911882,0.5526438,0.03286028,0.9560197,-0.2481153,-7.808187,-35.96566,-6.336267,1008.244
3.581900597,0.771373,-0.4105872,0.5526438,0.03182671,0.9618496,-0.2456459,-7.808187,-35.96566,-6.336267,1008.244
3.586925030,0.5243328,-0.6513886,0.5526438,0.03042857,0.956956,-0.2447496,-7.808187,-35.96566,-6.336267,1008.244
3.591949463,0.6478529,-0.5911882,0.6747746,0.03179109,0.9648288,-0.2532703,-7.808187,-35.96566,-6.336267,1008.244
3.596974373,0.7096129,-0.7717893,0.4915784,0.02985454,0.9647961,-0.2503962,-7.797323,-37.07616,-6.794078,1008.244
3.601998806,0.8948931,-0.9523904,0.6137092,0.03236494,0.9569919,-0.2481026,-7.797323,-37.07616,-6.794078,1008.244
3.607023716,0.833133,-0.9523904,0.430513,0.03522704,0.9609229,-0.2494909,-7.797323,-37.07616,-6.794078,1008.244
3.612048149,0.9566531,-1.072791,0.430513,0.03088829,0.9589629,-0.2523867,-7.797323,-37.07616,-6.794078,1008.244
3.617072106,0.7096129,-0.9523904,0.3694476,0.03425242,0.9614108,-0.2504419,-7.797323,-37.07616,-6.794078,1008.244
3.622097492,1.018413,-1.132991,0.3694476,0.03280487,0.9609102,-0.2499686,-7.797323,-37.07616,-6.794078,1008.244
3.627121926,0.9566531,-1.253392,0.4915784,0.03285004,0.9569819,-0.2461874,-7.797323,-37.07616,-6.794078,1008.244
3.632145882,0.5243328,-1.253392,0.2473169,0.03090132,0.9579479,-0.2466529,-7.797323,-37.07616,-6.794078,1008.245
3.637170792,0.5243328,-1.253392,0.3083822,0.03033824,0.9648126,-0.2523119,-7.797323,-37.07616,-6.794078,1008.245
3.642195225,0.09201248,-1.313593,0.3083822,0.0332898,0.9609035,-0.2485322,-7.797323,-37.07616,-6.794078,1008.245
3.647220135,0.3390526,-1.253392,0.1862515,0.03474194,0.9609329,-0.2514061,-8.111237,-36.70867,-6.340042,1008.245
3.652244568,0.1537725,-1.253392,0.3083822,0.0323551,0.9575621,-0.2600679,-8.111237,-36.70867,-6.340042,1008.245
3.657269001,0.2772926,-1.193192,0.2473169,0.03285271,0.956547,-0.2538554,-8.111237,-36.70867,-6.340042,1008.245
3.662293911,0.3390526,-1.193192,0.1862515,0.03433978,0.9536104,-0.2510203,-8.111237,-36.70867,-6.340042,1008.245
3.667314530,0.5860928,-1.373793,0.1862515,0.03526463,0.9575219,-0.2514499,-8.111237,-36.70867,-6.340042,1008.245
3.672338963,0.833133,-1.193192,0.06412067,0.0357598,0.956553,-0.2519414,-8.111237,-36.70867,-6.340042,1008.241
3.677363873,1.080173,-1.193192,0.1251861,0.03329334,0.960452,-0.2538059,-8.111237,-36.70867,-6.340042,1008.241
3.682388306,0.833133,-1.012591,0.06412067,0.03285923,0.9560395,-0.2509885,-8.111237,-36.70867,-6.340042,1008.241
3.687413216,1.141933,-1.072791,0.003055274,0.03473275,0.9618753,-0.2466051,-8.111237,-36.70867,-6.340042,1008.241
3.692437649,0.8948931,-0.7717893,0.003055274,0.0371477,0.9624088,-0.2509098,-7.800512,-36.70613,-6.793047,1008.241
3.697462082,0.8948931,-0.7717893,0.003055274,0.03576422,0.9560851,-0.2548208,-7.800512,-36.70613,-6.793047,1008.241
3.702486992,0.833133,-0.8319896,0.1251861,0.03139899,0.9565473,-0.2552912,-7.800512,-36.70613,-6.793047,1008.241
3.707511425,0.8948931,-0.6513886,-0.1801409,0.03518734,0.9643635,-0.2532783,-7.800512,-36.70613,-6.793047,1008.241
3.712536335,0.8948931,-0.5911882,-0.05801012,0.03228026,0.9643575,-0.2551923,-7.800512,-36.70613,-6.793047,1008.245
3.717560768,1.018413,-0.5309879,-0.2412063,0.03574444,0.9579964,-0.2490496,-7.800512,-36.70613,-6.793047,1008.245
3.722585678,0.7096129,-0.4707876,-0.1801409,0.0375472,0.9701663,-0.2436277,-7.800512,-36.70613,-6.793047,1008.245
3.727610111,0.3390526,-0.04938498,-0.1801409,0.04003095,0.9647875,-0.2393876,-7.800512,-36.70613,-6.793047,1008.245
3.732634545,-0.2167878,0.2516168,-0.1190755,0.04486859,0.9653237,-0.2417781,-7.800512,-36.70613,-6.793047,1008.245
3.737659455,-0.4638279,0.3720175,-0.3022717,0.04058931,0.9580119,-0.2466578,-7.800512,-36.70613,-6.793047,1008.245
3.742683888,-0.6491081,0.5526186,0.003055274,0.04353557,0.9545872,-0.242393,-7.803699,-36.33611,-6.792016,1008.245
3.747708798,-0.4638279,0.8536204,-0.05801012,0.03621842,0.9589651,-0.2476009,-7.803699,-36.33611,-6.792016,1008.245
3.752733231,-0.4020679,0.7332197,0.06412067,0.03237111,0.9564909,-0.2461934,-7.803699,-36.33611,-6.792016,1008.245
3.757757664,-0.4020679,0.7332197,0.1862515,0.03376413,0.9618657,-0.2461257,-7.803699,-36.33611,-6.792016,1008.245
3.762782574,-0.4020679,0.5526186,0.2473169,0.03371862,0.9658006,-0.2508646,-7.803699,-36.33611,-6.792016,1008.245
3.767807007,-0.4020679,0.4322179,0.1862515,0.03133737,0.9623242,-0.2442029,-7.803699,-36.33611,-6.792016,1008.245
3.772831917,-0.525588,0.2516168,0.1862515,0.0308671,0.9609007,-0.2504464,-7.803699,-36.33611,-6.792016,1008.245
3.777856350,-0.525588,-0.04938498,0.06412067,0.03377367,0.9609166,-0.2499691,-7.803699,-36.33611,-6.792016,1008.245
3.782881260,-0.525588,0.07101572,0.06412067,0.0279397,0.962816,-0.2480258,-7.803699,-36.33611,-6.792016,1008.245
3.787905693,-0.4020679,0.1312161,-0.05801012,0.03233229,0.959915,-0.2475865,-7.803699,-36.33611,-6.792016,1008.245
3.792930126,-0.03150762,-0.04938498,-0.05801012,0.03374702,0.9633421,-0.2480225,-8.106749,-37.07911,-6.795791,1008.245
3.795442104,0.2155325,-0.04938498,-0.1190755,0.03429072,0.9579967,-0.2504855,-8.106749,-37.07911,-6.795791,1008.245
3.800467014,0.4008127,-0.1095854,-0.1190755,0.03575643,0.9570011,-0.2461889,-8.106749,-37.07911,-6.795791,1008.245
3.805491447,0.8948931,0.07101572,-0.2412063,0.038147,0.9599171,-0.2423219,-8.106749,-37.07911,-6.795791,1008.245
3.810516357,0.771373,0.07101572,-0.2412063,0.03909497,0.9618547,-0.2394244,-8.106749,-37.07911,-6.795791,1008.245
3.815540791,0.7096129,0.1914164,-0.2412063,0.03569643,0.9623629,-0.2456416,-8.106749,-37.07911,-6.795791,1008.245
3.820565224,0.7096129,0.07101572,-0.05801012,0.03911016,0.9604145,-0.2427951,-8.106749,-37.07911,-6.795791,1008.245
3.825590134,0.6478529,0.1312161,-0.2412063,0.03577849,0.9550468,-0.2457349,-8.106749,-37.07911,-6.795791,1008.245
3.830614567,0.8948931,0.2516168,-0.05801012,0.03428682,0.9584547,-0.2461695,-8.106749,-37.07911,-6.795791,1008.245
3.835639477,1.327213,0.2516168,0.003055274,0.03667634,0.9613905,-0.2451757,-8.106749,-37.07911,-6.795791,1008.245
3.840663910,1.388973,0.1914164,-0.05801012,0.03575183,0.9574723,-0.2437884,-8.111237,-36.70867,-6.340042,1008.245
3.845690727,1.636014,-0.1095854,0.06412067,0.03132642,0.9632997,-0.2441904,-8.111237,-36.70867,-6.340042,1008.245
3.850713253,1.450734,0.1914164,0.06412067,0.03188916,0.9564415,-0.2394891,-8.111237,-36.70867,-6.340042,1008.245
3.855737686,1.450734,-0.1095854,0.06412067,0.03227439,0.9652372,-0.2412929,-8.111237,-36.70867,-6.340042,1008.245
3.860762596,1.574254,-0.04938498,0.1251861,0.02752852,0.9564325,-0.2423601,-8.111237,-36.70867,-6.340042,1008.245
3.865783215,1.636014,-0.2299861,0.06412067,0.03811825,0.9623821,-0.2461217,-8.111237,-36.70867,-6.340042,1008.245
3.870807648,1.821294,-0.1697858,0.06412067,0.03237798,0.9559768,-0.2423687,-8.111237,-36.70867,-6.340042,1008.245
3.875832558,1.697774,-0.4105872,0.003055274,0.04099182,0.9653278,-0.2460859,-8.111237,-36.70867,-6.340042,1008.245
3.880856991,1.574254,-0.4105872,0.3083822,0.03713514,0.9637994,-0.2403563,-8.111237,-36.70867,-6.340042,1008.245
3.885881901,1.203693,-0.4105872,0.3694476,0.03904486,0.9662609,-0.2417627,-8.111237,-36.70867,-6.340042,1008.245
3.890906334,0.7096129,-0.6513886,0.3083822,0.04004049,0.9638384,-0.2432309,-8.112537,-36.70824,-5.885323,1008.245
3.895930767,0.3390526,-0.4105872,0.2473169,0.03517373,0.9657739,-0.2455978,-8.112537,-36.70824,-5.885323,1008.245
3.900955677,0.03025243,-0.2901864,0.4915784,0.04199485,0.9623814,-0.2422928,-8.112537,-36.70824,-5.885323,1008.245
3.905980110,0.1537725,-0.2299861,0.3694476,0.03909782,0.9614164,-0.2466135,-8.112537,-36.70824,-5.885323,1008.245
3.911005020,0.3390526,-0.2299861,0.5526438,0.03867412,0.9560382,-0.2452451,-8.112537,-36.70824,-5.885323,1008.245
3.916029453,0.771373,-0.04938498,0.3694476,0.03188246,0.9569523,-0.2428349,-8.112537,-36.70824,-5.885323,1008.245
3.921053886,0.8948931,0.07101572,0.3694476,0.03528669,0.9555677,-0.2509959,-8.112537,-36.70824,-5.885323,1008.245
3.926078796,1.018413,0.2516168,0.5526438,0.03378212,0.9603727,-0.2418347,-8.112537,-36.70824,-5.885323,1008.245
3.931103230,1.141933,0.1312161,0.3694476,0.03526249,0.957947,-0.2423453,-8.112537,-36.70824,-5.885323,1008.245
3.936128139,0.771373,0.3720175,0.6137092,0.0347654,0.9589522,-0.2471213,-8.112537,-36.70824,-5.885323,1008.245
3.941152573,0.833133,0.01081538,0.6137092,0.03375919,0.9623435,-0.2446829,-8.482546,-36.71222,-6.342097,1008.245
3.946177483,0.6478529,-0.1697858,0.73584,0.03620765,0.9599373,-0.2471096,-8.482546,-36.71222,-6.342097,1008.245
3.951201916,0.2155325,-0.1697858,0.4915784,0.03134178,0.9618563,-0.2470822,-8.482546,-36.71222,-6.342097,1008.245
3.956226349,-0.09326766,-0.2299861,0.430513,0.02891007,0.9627926,-0.2437165,-8.482546,-36.71222,-6.342097,1008.247
3.961251259,-0.525588,-0.3503868,0.5526438,0.03473787,0.9613942,-0.247569,-8.482546,-36.71222,-6.342097,1008.247
3.966275692,-0.9579083,-0.2299861,0.2473169,0.03417951,0.9681699,-0.2402989,-8.482546,-36.71222,-6.342097,1008.247
3.971300602,-1.328469,-0.3503868,0.430513,0.0370365,0.972582,-0.2407232,-8.482546,-36.71222,-6.342097,1008.247
3.976325035,-1.884309,-0.4105872,0.4915784,0.03898928,0.9711547,-0.2440948,-8.482546,-36.71222,-6.342097,1008.247
3.981349468,-2.68719,-0.5911882,0.5526438,0.04044248,0.9711643,-0.2440956,-8.482546,-36.71222,-6.342097,1008.247
3.986374378,-3.36655,-0.5309879,0.6137092,0.03612223,0.9677015,-0.2412637,-8.482546,-36.71222,-6.342097,1008.247
3.991398811,-3.73711,-0.5911882,0.73584,0.0356419,0.9672369,-0.2451006,-8.109348,-37.07826,-5.886354,1008.247
3.996423721,-4.478231,-1.072791,0.6137092,0.03468015,0.9667131,-0.2407966,-8.109348,-37.07826,-5.886354,1008.247
4.001448154,-4.848792,-1.072791,0.9190362,0.03953066,0.9662376,-0.2379321,-8.109348,-37.07826,-5.886354,1008.247
4.006473064,-5.281112,-1.072791,0.9190362,0.03233229,0.959915,-0.2475865,-8.109348,-37.07826,-5.886354,1008.247
4.011497498,-5.404632,-1.674795,0.73584,0.03133172,0.9628153,-0.2446755,-8.109348,-37.07826,-5.886354,1008.247
4.016521931,-5.281112,-1.614594,0.7969054,0.02984215,0.9661835,-0.2393638,-8.109348,-37.07826,-5.886354,1008.247
4.021546841,-5.528152,-1.554394,0.8579708,0.03369175,0.9686148,-0.2345461,-8.109348,-37.07826,-5.886354,1008.247
4.026571274,-5.713432,-1.554394,0.5526438,0.02938016,0.9642195,-0.2379518,-8.109348,-37.07826,-5.886354,1008.247
4.031596184,-6.022232,-1.494194,0.6137092,0.03032213,0.9666547,-0.2364846,-8.109348,-37.07826,-5.886354,1008.247
4.036620617,-6.578073,-1.373793,0.5526438,0.0356752,0.9646861,-0.2288505,-8.484434,-36.34262,-6.795784,1008.247
4.041645050,-6.948633,-1.132991,0.003055274,0.03660041,0.968591,-0.2283224,-8.484434,-36.34262,-6.795784,1008.247
4.046669960,-7.813273,-0.7717893,0.1251861,0.03221701,0.9705495,-0.2335627,-8.484434,-36.34262,-6.795784,1008.247
4.051693916,-7.875033,-0.4105872,-0.2412063,0.03752742,0.9720777,-0.2378565,-8.484434,-36.34262,-6.795784,1008.247
4.056718349,-8.307354,0.07101572,-0.4244025,0.03123023,0.9720361,-0.2378533,-8.484434,-36.34262,-6.795784,1008.247
4.061743736,-8.245594,0.1312161,-0.668664,0.03704459,0.9720448,-0.2335465,-8.484434,-36.34262,-6.795784,1008.247
4.066763878,-8.183834,0.01081538,-0.4244025,0.03513859,0.9691287,-0.2369349,-8.484434,-36.34262,-6.795784,1008.247
4.071793556,-7.998554,0.1914164,-0.7297295,0.03802206,0.9711186,-0.2397846,-8.484434,-36.34262,-6.795784,1008.247
4.076813221,-7.504473,0.1914164,-0.7297295,0.03464627,0.9696593,-0.2436324,-8.484434,-36.34262,-6.795784,1008.247
4.081837654,-7.566233,0.4924182,-0.7297295,0.03706542,0.9701136,-0.2364445,-8.484434,-36.34262,-6.795784,1008.247
4.086862087,-7.689754,0.3118172,-0.6075987,0.03902985,0.9676977,-0.2379132,-8.109938,-36.70909,-6.79476,1008.247
4.091886997,-7.442713,0.5526186,-0.6075987,0.04101791,0.9632976,-0.2346181,-8.109938,-36.70909,-6.79476,1008.247
4.096911430,-7.257433,0.5526186,-0.6075987,0.03817046,0.9579365,-0.2380371,-8.109938,-36.70909,-6.79476,1008.247
4.101941109,-6.825113,0.7934201,-0.4244025,0.03862611,0.9604048,-0.2418371,-8.109938,-36.70909,-6.79476,1008.247
4.106960773,-6.207512,1.034221,-0.1801409,0.03333334,0.9573902,-0.23421,-8.109938,-36.70909,-6.79476,1008.247
4.111985683,-5.651672,1.214823,-0.1190755,0.0318731,0.9578981,-0.2385127,-8.109938,-36.70909,-6.79476,1008.247
4.117010117,-5.713432,1.455624,-0.05801012,0.03096693,0.9524804,-0.2318766,-8.109938,-36.70909,-6.79476,1008.247
4.122034550,-5.713432,1.395424,-0.1801409,0.02364041,0.9578041,-0.2327622,-8.109938,-36.70909,-6.79476,1008.247
4.127059460,-5.775192,1.154622,-0.2412063,0.02418871,0.9519874,-0.2376257,-8.109938,-36.70909,-6.79476,1008.247
4.132088184,-5.651672,0.7332197,-0.2412063,0.02758602,0.9515023,-0.2347605,-8.109938,-36.70909,-6.79476,1008.247
4.137108803,-5.157592,0.3118172,-0.3022717,0.02753469,0.9559317,-0.2404509,-8.484434,-36.34262,-6.795784,1008.247
4.142133236,-4.601751,0.07101572,-0.3633371,0.02367504,0.9544592,-0.2428618,-8.484434,-36.34262,-6.795784,1008.247
4.147158146,-4.231191,-0.4707876,-0.4244025,0.02801449,0.9564061,-0.2380506,-8.484434,-36.34262,-6.795784,1008.247
4.152182579,-3.67535,-0.4105872,-0.6075987,0.02508517,0.9583576,-0.2408974,-8.484434,-36.34262,-6.795784,1008.247
4.157207012,-3.36655,-0.6513886,-0.668664,0.02602359,0.9612442,-0.2341565,-8.484434,-36.34262,-6.795784,1008.247
4.162236691,-3.49007,-0.4105872,-0.8518602,0.03079839,0.9675806,-0.2288107,-8.484434,-36.34262,-6.795784,1008.247
4.167256355,-3.67535,-0.5309879,-0.7907948,0.03023775,0.974399,-0.2277657,-8.484434,-36.34262,-6.795784,1008.247
4.172281265,-4.354711,-0.2299861,-0.8518602,0.03465909,0.969033,-0.2235266,-8.484434,-36.34262,-6.795784,1008.247
4.177305698,-4.663511,-0.04938498,-0.7907948,0.03076522,0.9705135,-0.2297311,-8.484434,-36.34262,-6.795784,1008.247
4.182330132,-4.787031,0.01081538,-0.668664,0.03127272,0.9685427,-0.2264042,-8.484434,-36.34262,-6.795784,1008.247
4.187355042,-4.787031,0.01081538,-0.3633371,0.02742366,0.9661015,-0.2297854,-7.797911,-36.70699,-7.702484,1008.247
4.192382336,-4.601751,-0.1697858,-0.1801409,0.03080863,0.9666182,-0.2307386,-7.797911,-36.70699,-7.702484,1008.247
4.197404385,-4.045911,-0.4105872,-0.3633371,0.02500556,0.9656275,-0.2341001,-7.797911,-36.70699,-7.702484,1008.247
4.202428818,-3.92239,-0.5911882,0.003055274,0.0240168,0.9675357,-0.2288073,-7.797911,-36.70699,-7.702484,1008.249
4.207453728,-3.36655,-0.9523904,-0.1801409,0.02261249,0.963143,-0.2298202,-7.797911,-36.70699,-7.702484,1008.249
4.212478161,-3.49007,-1.433993,0.003055274,0.02546575,0.9680099,-0.2254498,-7.797911,-36.70699,-7.702484,1008.249
4.217502594,-3.55183,-1.313593,-0.05801012,0.02597645,0.9655942,-0.2283543,-7.797911,-36.70699,-7.702484,1008.249
4.222527504,-4.045911,-1.554394,0.003055274,0.02495947,0.9699577,-0.2254247,-7.797911,-36.70699,-7.702484,1008.249
4.227551937,-4.416471,-1.795196,-0.05801012,0.02311435,0.9616632,-0.226966,-7.797911,-36.70699,-7.702484,1008.249
4.232576847,-4.725271,-1.975797,0.003055274,0.02696026,0.9641638,-0.2322043,-7.797911,-36.70699,-7.702484,1008.249
4.237601280,-4.972311,-1.975797,0.06412067,0.02654134,0.9583111,-0.2327575,-8.111824,-36.33949,-7.248447,1008.249
4.242625713,-4.725271,-1.795196,0.003055274,0.02842423,0.9632012,-0.2326963,-8.111824,-36.33949,-7.248447,1008.252
4.247650623,-4.107671,-1.975797,-0.1190755,0.02549525,0.9651462,-0.2345854,-8.111824,-36.33949,-7.248447,1008.252
4.252675057,-3.79887,-1.734995,-0.3633371,0.02892451,0.9617512,-0.2341518,-8.111824,-36.33949,-7.248447,1008.252
4.257699966,-3.92239,-1.975797,-0.3633371,0.02357017,0.9641283,-0.2302871,-8.111824,-36.33949,-7.248447,1008.252
4.262724400,-3.73711,-1.674795,-0.5465333,0.03174408,0.9695609,-0.2321384,-8.111824,-36.33949,-7.248447,1008.252
4.267748356,-3.55183,-1.734995,-0.7297295,0.02452116,0.9656243,-0.2340998,-8.111824,-36.33949,-7.248447,1008.252
4.272769928,-3.49007,-1.855396,-0.8518602,0.03564645,0.9671512,-0.2326503,-8.111824,-36.33949,-7.248447,1008.252
4.277794361,-3.11951,-1.734995,-0.8518602,0.02841241,0.9641932,-0.2350782,-8.111824,-36.33949,-7.248447,1008.252
4.282818794,-2.99599,-1.734995,-0.7297295,0.03755669,0.9696026,-0.2326201,-7.802399,-36.33654,-7.246735,1008.25
4.287843704,-3.11951,-1.614594,-0.7907948,0.03617619,0.9632227,-0.2283905,-7.802399,-36.33654,-7.246735,1008.25
4.292868137,-3.11951,-1.614594,-0.7907948,0.03809632,0.9647185,-0.231246,-7.802399,-36.33654,-7.246735,1008.25
4.297893047,-2.99599,-1.313593,-0.4854679,0.0399986,0.9680894,-0.2230629,-7.802399,-36.33654,-7.246735,1008.25
4.302917481,-3.11951,-1.253392,-0.6075987,0.03666623,0.9627349,-0.2279181,-7.802399,-36.33654,-7.246735,1008.25
4.307942391,-3.11951,-1.253392,-0.668664,0.03568456,0.9637403,-0.2331726,-7.802399,-36.33654,-7.246735,1008.25
4.310454369,-2.99599,-1.193192,-0.5465333,0.03763573,0.9627281,-0.2260032,-7.802399,-36.33654,-7.246735,1008.25
4.315478802,-2.563669,-1.193192,-0.3022717,0.03959823,0.9603484,-0.2327393,-7.802399,-36.33654,-7.246735,1008.25
4.320503235,-2.378389,-1.072791,-0.3022717,0.03918018,0.9544792,-0.2308982,-7.802399,-36.33654,-7.246735,1008.25
4.325528145,-2.069589,-0.9523904,-0.4244025,0.03772081,0.9549705,-0.2328067,-7.802399,-36.33654,-7.246735,1008.25
4.330552578,-1.822549,-0.89219,-0.3022717,0.03528839,0.9559201,-0.2313565,-7.802399,-36.33654,-7.246735,1008.25
4.335577488,-1.328469,-0.9523904,-0.3633371,0.03870055,0.9540014,-0.2328196,-8.110523,-36.33992,-7.703166,1008.25
4.340601921,-0.6491081,-0.8319896,-0.1801409,0.03191524,0.9544114,-0.2280214,-8.110523,-36.33992,-7.703166,1008.25
4.345626354,-0.1550277,-0.7717893,-0.1190755,0.03284842,0.957397,-0.2356463,-8.110523,-36.33992,-7.703166,1008.25
4.350651264,0.4008127,-0.7717893,-0.05801012,0.02894355,0.9602384,-0.2269876,-8.110523,-36.33992,-7.703166,1008.25
4.355675697,0.8948931,-0.6513886,-0.1190755,0.03676046,0.9544203,-0.2246718,-8.110523,-36.33992,-7.703166,1008.25
4.360700607,1.203693,-0.4105872,-0.05801012,0.03329273,0.9612328,-0.2255408,-8.110523,-36.33992,-7.703166,1008.25
4.365725041,1.141933,-0.7717893,0.1251861,0.040582,0.9593035,-0.2217384,-8.110523,-36.33992,-7.703166,1008.245
4.370749950,1.327213,-0.8319896,0.06412067,0.03616555,0.964577,-0.2125695,-8.110523,-36.33992,-7.703166,1008.245
4.375774384,1.080173,-0.2901864,0.3083822,0.04047731,0.9689692,-0.2086849,-8.110523,-36.33992,-7.703166,1008.245
4.380798817,1.080173,-0.3503868,0.3694476,0.03668102,0.9616868,-0.2173956,-8.11071,-36.33986,-7.638206,1008.245
4.385827065,1.265453,-0.2299861,0.5526438,0.03326818,0.9636186,-0.2178479,-8.11071,-36.33986,-7.638206,1008.245
4.390848160,1.327213,-0.2299861,0.6747746,0.03126353,0.9694852,-0.2216032,-8.11071,-36.33986,-7.638206,1008.245
4.395873070,1.883054,-0.2299861,0.5526438,0.03028274,0.970474,-0.2244634,-8.11071,-36.33986,-7.638206,1008.245
4.400902271,2.006574,-0.5309879,0.73584,0.03168425,0.9749194,-0.2311122,-8.11071,-36.33986,-7.638206,1008.245
4.405921936,1.944814,-0.2901864,0.4915784,0.02390704,0.9772971,-0.2296406,-8.11071,-36.33986,-7.638206,1008.25
4.410946846,1.883054,-0.5911882,0.5526438,0.02784665,0.9714929,-0.2330692,-8.11071,-36.33986,-7.638206,1008.25
4.415971279,1.883054,-0.1697858,0.73584,0.03077156,0.9700093,-0.2273431,-8.11071,-36.33986,-7.638206,1008.25
4.420996189,2.006574,-0.3503868,0.5526438,0.03132231,0.9641465,-0.2255025,-8.11071,-36.33986,-7.638206,1008.25
4.426020622,2.068334,-0.04938498,0.4915784,0.03904127,0.9670976,-0.2216382,-8.11071,-36.33986,-7.638206,1008.25
4.431045532,2.068334,0.2516168,0.73584,0.03957298,0.9627475,-0.2269619,-8.105448,-37.07954,-7.250509,1008.25
4.436069965,1.759534,0.4322179,0.7969054,0.03324844,0.9651446,-0.2269276,-8.105448,-37.07954,-7.250509,1008.25
4.441094399,2.006574,0.612819,0.73584,0.03479393,0.9568759,-0.2289495,-8.105448,-37.07954,-7.250509,1008.25
4.446119309,2.068334,0.612819,0.7969054,0.03333457,0.9573671,-0.230858,-8.105448,-37.07954,-7.250509,1008.25
4.451143742,2.438894,0.612819,0.9190362,0.02750326,0.9588316,-0.2365827,-8.105448,-37.07954,-7.250509,1008.25
4.456168652,3.241775,0.5526186,0.7969054,0.03196575,0.9496132,-0.2395762,-8.105448,-37.07954,-7.250509,1008.25
4.461193085,3.859375,-0.04938498,0.9801016,0.02857955,0.9491195,-0.241975,-8.105448,-37.07954,-7.250509,1008.25
4.466213703,4.538735,-0.04938498,1.285429,0.02948747,0.9545043,-0.2438225,-8.105448,-37.07954,-7.250509,1008.25
4.471238613,5.341616,-0.3503868,1.224363,0.02704976,0.9559383,-0.2418872,-8.105448,-37.07954,-7.250509,1008.25
4.476263046,5.712176,-0.2299861,1.346494,0.02951815,0.9520029,-0.2347552,-8.105448,-37.07954,-7.250509,1008.25
4.481287003,5.959217,-0.5309879,1.346494,0.03286269,0.9563589,-0.2265604,-8.113125,-36.33907,-6.793729,1008.25
4.486311436,5.835697,-0.1697858,1.712886,0.02749722,0.9597147,-0.2231622,-8.113125,-36.33907,-6.793729,1008.252
4.491336346,5.773936,-0.2299861,2.018213,0.02654676,0.9582088,-0.2179129,-8.113125,-36.33907,-6.793729,1008.252
4.496360779,5.588656,-0.3503868,2.262475,0.02166588,0.9615645,-0.214036,-8.113125,-36.33907,-6.793729,1008.252
4.501389027,5.341616,-0.2901864,2.32354,0.02603501,0.9606442,-0.2178815,-8.113125,-36.33907,-6.793729,1008.252
4.506410122,5.094576,-0.3503868,2.262475,0.02309667,0.963535,-0.2154485,-8.113125,-36.33907,-6.793729,1008.252
4.511434555,5.279856,-0.3503868,1.957148,0.02549696,0.9654986,-0.214946,-8.113125,-36.33907,-6.793729,1008.252
4.516459465,5.403376,-0.5911882,1.712886,0.0283384,0.9713575,-0.2129574,-8.113125,-36.33907,-6.793729,1008.252
4.521483898,5.218096,-0.4105872,1.712886,0.03173624,0.9708624,-0.2086556,-8.113125,-36.33907,-6.793729,1008.252
4.526508808,4.600496,-0.2299861,1.590756,0.03021298,0.9771737,-0.2057008,-8.113125,-36.33907,-6.793729,1008.252
4.531538487,3.612335,0.07101572,1.52969,0.03212782,0.9791539,-0.2080713,-8.111824,-36.33949,-7.248447,1008.252
4.536558151,2.747694,0.2516168,1.52969,0.0316685,0.9767549,-0.2143273,-8.111824,-36.33949,-7.248447,1008.252
4.541582585,2.191854,0.3118172,1.651821,0.02731984,0.9757506,-0.2143375,-8.111824,-36.33949,-7.248447,1008.252
4.546607018,2.191854,0.5526186,1.52969,0.02928676,0.972903,-0.223953,-8.111824,-36.33949,-7.248447,1008.252
4.551631928,2.624174,0.6730193,1.468625,0.03370653,0.9675667,-0.2240236,-8.111824,-36.33949,-7.248447,1008.252
4.556656361,3.674095,0.612819,1.468625,0.02789851,0.9670537,-0.2259423,-8.111824,-36.33949,-7.248447,1008.252
4.561686516,4.044655,0.9740211,1.407559,0.02737512,0.9704779,-0.227814,-8.111824,-36.33949,-7.248447,1008.252
4.566705704,4.229935,0.9138207,1.407559,0.02832943,0.9719113,-0.2225284,-8.111824,-36.33949,-7.248447,1008.252
4.571730137,3.921135,0.7332197,1.468625,0.03026668,0.9719306,-0.223487,-8.111824,-36.33949,-7.248447,1008.25
4.576755047,3.303535,1.214823,1.712886,0.02970872,0.9783142,-0.23011,-8.111824,-36.33949,-7.248447,1008.25
4.581779480,2.562414,0.9740211,1.52969,0.02976976,0.9729326,-0.2277841,-8.111824,-36.33949,-7.248447,1008.25
4.586804390,1.821294,1.094422,1.52969,0.03369669,0.9681369,-0.2359888,-8.111824,-36.33949,-7.248447,1008.25
4.591828823,1.388973,1.094422,1.468625,0.0293602,0.9661341,-0.2326595,-8.111824,-36.33949,-7.248447,1008.25
4.596853733,1.203693,0.9138207,1.590756,0.02833989,0.9705602,-0.2388282,-8.111824,-36.33949,-7.248447,1008.25
4.601878166,0.9566531,1.034221,1.651821,0.0318152,0.9632203,-0.2322192,-8.111824,-36.33949,-7.248447,1008.25
4.606902599,1.141933,0.7934201,1.346494,0.02892224,0.9617941,-0.240377,-8.111824,-36.33949,-7.248447,1008.25
4.611927509,1.450734,0.4924182,1.224363,0.02934541,0.9671822,-0.243182,-8.111824,-36.33949,-7.248447,1008.252
4.616951943,1.574254,0.7332197,1.285429,0.03227137,0.9656788,-0.2345826,-8.111824,-36.33949,-7.248447,1008.252
4.621976853,1.697774,0.612819,1.102232,0.03222813,0.9695708,-0.2330963,-8.111824,-36.33949,-7.248447,1008.252
4.627001286,1.327213,0.7332197,1.041167,0.03326222,0.9637309,-0.2341291,-7.4279,-36.70301,-7.24571,1008.252
4.632026196,0.771373,0.7934201,0.8579708,0.02740637,0.9675812,-0.232161,-7.4279,-36.70301,-7.24571,1008.252
4.637053490,0.1537725,0.9740211,0.8579708,0.03561699,0.9696295,-0.2383655,-7.4279,-36.70301,-7.24571,1008.252
4.642075062,-0.03150762,0.9740211,0.7969054,0.03372969,0.9652072,-0.2355473,-7.4279,-36.70301,-7.24571,1008.252
4.647099972,-0.2785478,1.154622,0.6137092,0.03563621,0.9681134,-0.2307224,-7.4279,-36.70301,-7.24571,1008.252
4.652124405,-0.4020679,1.515824,0.3694476,0.03706223,0.9705585,-0.2302132,-7.4279,-36.70301,-7.24571,1008.25
4.657149315,-0.6491081,1.636225,0.430513,0.0322613,0.9666377,-0.2321759,-7.4279,-36.70301,-7.24571,1008.25
4.662173748,-0.8961483,1.997427,0.4915784,0.03519785,0.9641654,-0.2245467,-7.4279,-36.70301,-7.24571,1008.25
4.667194367,-1.081428,2.178028,0.3694476,0.03317697,0.9714918,-0.2278045,-7.4279,-36.70301,-7.24571,1008.25
4.672218800,-1.019668,2.178028,0.3694476,0.03079926,0.967564,-0.2264164,-7.4279,-36.70301,-7.24571,1008.25
4.677243710,-0.8961483,2.298429,0.6137092,0.02692144,0.9675879,-0.2335973,-8.109938,-36.70909,-6.79476,1008.25
4.682272911,-0.9579083,2.178028,0.5526438,0.02449573,0.9680266,-0.2288013,-8.109938,-36.70909,-6.79476,1008.25
4.687293053,-0.8343882,1.997427,0.430513,0.02348672,0.9714707,-0.2340247,-8.109938,-36.70909,-6.79476,1008.25
4.692317486,-0.7726282,1.997427,0.6747746,0.02297194,0.9743477,-0.2272831,-8.109938,-36.70909,-6.79476,1008.25
4.697342396,-0.8343882,1.696425,0.6137092,0.01968688,0.9646398,-0.2374619,-8.109938,-36.70909,-6.79476,1008.25
4.702366829,-0.8961483,1.335223,0.430513,0.02254544,0.9690223,-0.2335765,-8.109938,-36.70909,-6.79476,1008.25
4.707391262,-0.8343882,1.154622,0.3694476,0.02400482,0.968531,-0.231668,-8.109938,-36.70909,-6.79476,1008.25
4.712416172,-0.8343882,1.034221,0.430513,0.02838873,0.9665626,-0.224991,-8.109938,-36.70909,-6.79476,1008.25
4.717440605,-0.9579083,0.9138207,0.1862515,0.03031364,0.9675839,-0.2297682,-8.109938,-36.70909,-6.79476,1008.25
4.722465515,-1.390229,0.8536204,0.2473169,0.02834707,0.9704249,-0.219195,-8.109938,-36.70909,-6.79476,1008.25
4.727489948,-1.884309,0.8536204,0.1862515,0.03026068,0.9724283,-0.2249174,-7.799212,-36.70656,-7.247766,1008.25
4.732514858,-2.193109,0.9740211,0.06412067,0.0303371,0.9656032,-0.2254833,-7.799212,-36.70656,-7.247766,1008.25
4.737539292,-2.501909,1.335223,-0.1190755,0.03618608,0.962267,-0.2312761,-7.799212,-36.70656,-7.247766,1008.25
4.742563725,-2.440149,1.094422,-0.1801409,0.04155789,0.958407,-0.2322863,-7.799212,-36.70656,-7.247766,1008.25
4.747588635,-2.193109,1.034221,-0.1801409,0.03423859,0.9632099,-0.2283895,-7.799212,-36.70656,-7.247766,1008.25
4.752613068,-1.699029,1.335223,-0.3022717,0.0361912,0.9617859,-0.2322401,-7.799212,-36.70656,-7.247766,1008.25
4.757637978,-1.946069,1.275023,-0.4244025,0.0308741,0.9607686,-0.2312921,-7.799212,-36.70656,-7.247766,1008.25
4.762662411,-1.637269,1.455624,-0.4854679,0.03621273,0.9598415,-0.2332226,-7.799212,-36.70656,-7.247766,1008.25
4.767686844,-1.513749,1.515824,-0.4244025,0.03327369,0.9627455,-0.232705,-7.799212,-36.70656,-7.247766,1008.25
4.772710800,-1.328469,1.455624,-0.6075987,0.03235855,0.9578816,-0.2356398,-7.799212,-36.70656,-7.247766,1008.25
4.777736187,-1.328469,1.576025,-0.3633371,0.03284225,0.957898,-0.2375555,-8.111824,-36.33949,-7.248447,1008.25
4.782760143,-0.6491081,1.335223,-0.5465333,0.02755075,0.954475,-0.2414272,-8.111824,-36.33949,-7.248447,1008.25
4.787785053,-0.525588,1.154622,-0.4854679,0.03088754,0.9593616,-0.2394513,-8.111824,-36.33949,-7.248447,1008.25
4.792809486,-0.09326766,0.7332197,-0.3633371,0.0274812,0.9607859,-0.2370366,-8.111824,-36.33949,-7.248447,1008.25
4.797834396,0.1537725,0.7332197,-0.3022717,0.02221352,0.9553756,-0.2356658,-8.111824,-36.33949,-7.248447,1008.25
4.802858829,0.5243328,0.612819,-0.5465333,0.02689729,0.9695817,-0.2397977,-8.111824,-36.33949,-7.248447,1008.25
4.807883263,0.4625728,0.3720175,-0.7297295,0.02698779,0.9617218,-0.2317565,-8.111824,-36.33949,-7.248447,1008.25
4.812908173,0.5860928,0.4322179,-0.7907948,0.02979397,0.9705533,-0.2364346,-8.111824,-36.33949,-7.248447,1008.25
4.815420628,0.5243328,0.2516168,-0.973991,0.03372562,0.9656686,-0.2317102,-8.111824,-36.33949,-7.248447,1008.25
4.820445538,0.5860928,0.07101572,-0.8518602,0.03951018,0.9681621,-0.2340764,-8.111824,-36.33949,-7.248447,1008.25
4.825469971,0.4625728,-0.04938498,-1.218253,0.04002845,0.9652191,-0.2312408,-8.481833,-36.34347,-7.705221,1008.25
4.830494404,0.8948931,0.2516168,-1.401449,0.03855989,0.9666529,-0.2283482,-8.481833,-36.34347,-7.705221,1008.25
4.835519314,0.7096129,0.4924182,-1.462514,0.04675445,0.9701578,-0.2335763,-8.481833,-36.34347,-7.705221,1008.25
4.840543747,0.7096129,0.7934201,-1.52358,0.04626721,0.9705929,-0.226387,-8.481833,-36.34347,-7.705221,1008.25
4.845568657,0.771373,1.034221,-1.52358,0.04536795,0.9642755,-0.230777,-8.481833,-36.34347,-7.705221,1008.25
4.850593090,0.4625728,1.335223,-1.401449,0.04826288,0.9652801,-0.2322027,-8.481833,-36.34347,-7.705221,1008.25
4.855618000,0.4625728,1.455624,-1.584645,0.04439281,0.9647734,-0.2331646,-8.481833,-36.34347,-7.705221,1008.25
4.983745575,0.771373,1.937227,0.1251861,0.03270968,0.9700122,-0.2259074,-7.803699,-36.33611,-6.792016,1008.25
4.986253738,0.4008127,1.877027,-0.05801012,0.03079187,0.968088,-0.2316777,-7.803699,-36.33611,-6.792016,1008.25
4.991278172,0.5243328,1.515824,0.06412067,0.03522327,0.961763,-0.2298453,-7.803699,-36.33611,-6.792016,1008.25
4.996302605,0.7096129,1.335223,0.3083822,0.03322906,0.9666639,-0.2350495,-7.803699,-36.33611,-6.792016,1008.25
5.001327515,0.771373,1.154622,0.06412067,0.02653727,0.9587724,-0.2289204,-7.803699,-36.33611,-6.792016,1008.25
5.006352901,0.6478529,1.034221,0.2473169,0.03525895,0.9583984,-0.2370717,-7.803699,-36.33611,-6.792016,1008.25
5.011376858,0.6478529,0.8536204,0.2473169,0.03566885,0.9651903,-0.2312386,-7.803699,-36.33611,-6.792016,1008.25
5.016401291,0.6478529,0.7934201,0.3083822,0.03763468,0.9627479,-0.2288763,-7.803699,-36.33611,-6.792016,1008.25
5.021426201,0.771373,0.7934201,0.430513,0.03224472,0.9681042,-0.2326361,-7.799212,-36.70656,-7.247766,1008.25
5.026450634,0.771373,0.9740211,0.3694476,0.03905488,0.9656873,-0.2293186,-7.799212,-36.70656,-7.247766,1008.25
5.031475067,0.5243328,0.7332197,0.4915784,0.03328941,0.9612955,-0.2346391,-7.799212,-36.70656,-7.247766,1008.25
5.036505222,0.2772926,0.8536204,0.430513,0.03897567,0.9725652,-0.2364144,-7.799212,-36.70656,-7.247766,1008.25
5.041524410,0.2772926,0.8536204,0.4915784,0.03572711,0.9598615,-0.2365744,-7.799212,-36.70656,-7.247766,1008.25
5.046549320,0.09201248,0.7332197,0.6747746,0.03571262,0.9612884,-0.2312883,-7.799212,-36.70656,-7.247766,1008.25
5.051573753,0.4625728,0.7934201,0.430513,0.02995349,0.9563924,-0.2342207,-7.799212,-36.70656,-7.247766,1008.25
5.056598663,0.5860928,0.5526186,0.73584,0.0376107,0.9647384,-0.2345978,-7.799212,-36.70656,-7.247766,1008.25
5.164627552,-0.2785478,0.8536204,1.041167,0.03421002,0.9656718,-0.2317104,-8.113125,-36.33907,-6.793729,1008.25
5.167145252,-0.4020679,0.4924182,0.9190362,0.03035495,0.9637282,-0.2365219,-8.476757,-37.08309,-7.252564,1008.25
5.172164917,-0.3403079,0.612819,1.041167,0.03566763,0.9652134,-0.2345906,-8.476757,-37.08309,-7.252564,1008.25
5.177189827,-0.2167878,0.5526186,0.8579708,0.03469388,0.9656848,-0.2331473,-8.476757,-37.08309,-7.252564,1008.25
5.182214260,0.03025243,0.612819,0.9190362,0.03613137,0.9671444,-0.2312139,-8.476757,-37.08309,-7.252564,1008.254
5.187234879,-0.1550277,0.4322179,0.8579708,0.03374028,0.9642384,-0.2365174,-8.476757,-37.08309,-7.252564,1008.254
5.192259312,-0.2785478,0.6730193,0.7969054,0.03275472,0.9657018,-0.237456,-8.476757,-37.08309,-7.252564,1008.254
5.197284222,-0.4638279,0.7934201,0.8579708,0.03231194,0.9622216,-0.228401,-8.476757,-37.08309,-7.252564,1008.254
5.202308655,-0.6491081,0.612819,0.7969054,0.0342845,0.958883,-0.2375438,-8.476757,-37.08309,-7.252564,1008.254
5.207333565,-0.2785478,1.034221,0.9801016,0.03621098,0.9598746,-0.2380112,-8.476757,-37.08309,-7.252564,1008.254
5.212357998,-0.2785478,0.7934201,0.8579708,0.03178697,0.9656755,-0.2345824,-8.476757,-37.08309,-7.252564,1008.254
5.217382908,0.09201248,0.8536204,0.9801016,0.03520494,0.9632625,-0.2350941,-7.800512,-36.70613,-6.793047,1008.254
5.222406864,0.2772926,0.5526186,0.7969054,0.03091135,0.9573743,-0.2342087,-7.800512,-36.70613,-6.793047,1008.254
5.227431774,0.6478529,0.4924182,1.041167,0.03614336,0.9661492,-0.2283532,-7.800512,-36.70613,-6.793047,1008.254
5.232455730,0.3390526,0.4924182,0.5526438,0.03120795,0.9743791,-0.2239353,-7.800512,-36.70613,-6.793047,1008.254
5.237482548,0.09201248,0.4924182,0.6747746,0.03366987,0.9705657,-0.2345212,-7.800512,-36.70613,-6.793047,1008.254
5.342998028,-0.1550277,0.4322179,0.6137092,0.02800744,0.9569235,-0.2423541,-8.483133,-36.34304,-7.250503,1008.256
5.345510483,0.09201248,0.1914164,0.4915784,0.03237833,0.9559702,-0.241411,-8.483133,-36.34304,-7.250503,1008.256
5.350534916,0.7096129,0.3118172,0.6137092,0.02897112,0.9574109,-0.2413906,-8.483133,-36.34304,-7.250503,1008.256
5.355559826,0.9566531,-0.04938498,0.6747746,0.0298741,0.9632735,-0.2417954,-8.483133,-36.34304,-7.250503,1008.256
5.360584259,1.080173,-0.1095854,0.6747746,0.03371538,0.9666308,-0.2297823,-8.483133,-36.34304,-7.250503,1008.256
5.365609169,0.833133,-0.04938498,0.4915784,0.0351287,0.9700843,-0.2340493,-8.483133,-36.34304,-7.250503,1008.256
5.370633602,0.5243328,-0.04938498,0.2473169,0.03515356,0.9680772,-0.2259336,-8.483133,-36.34304,-7.250503,1008.256
5.375657559,-0.3403079,0.07101572,0.2473169,0.03609588,0.9705058,-0.2235086,-8.483133,-36.34304,-7.250503,1008.256
5.380684853,-0.8343882,0.3118172,0.1862515,0.03753196,0.9719918,-0.2254062,-8.483133,-36.34304,-7.250503,1008.256
5.385703087,-1.081428,0.4924182,0.003055274,0.03664098,0.965134,-0.2221407,-8.483133,-36.34304,-7.250503,1008.256
5.390727520,-0.8961483,0.4322179,-0.05801012,0.03812508,0.9622534,-0.2274462,-8.483133,-36.34304,-7.250503,1008.256
5.395757675,-0.7726282,0.5526186,0.06412067,0.03668247,0.961275,-0.2284156,-8.483133,-36.34304,-7.250503,1008.256
5.400776863,-0.587348,0.612819,-0.05801012,0.03667914,0.9613377,-0.237514,-8.483133,-36.34304,-7.250503,1008.256
5.405801296,-0.2785478,0.4322179,0.06412067,0.03714481,0.9632325,-0.2288699,-8.483133,-36.34304,-7.250503,1008.256
5.410826206,-0.2167878,0.8536204,-0.05801012,0.03715895,0.9618121,-0.2351137,-8.483133,-36.34304,-7.250503,1008.256
5.518856049,-0.8961483,0.612819,-0.1801409,0.02940397,0.9622322,-0.2327092,-7.801098,-36.33696,-7.701453,1008.257
5.523880482,-1.081428,0.4924182,-0.4854679,0.03903282,0.9676415,-0.2297726,-7.801098,-36.33696,-7.701453,1008.257
5.526392460,-1.143188,0.612819,-0.4244025,0.03566746,0.9652167,-0.2350694,-7.801098,-36.33696,-7.701453,1008.257
5.531418800,-0.525588,0.4924182,-0.3633371,0.04001116,0.9666988,-0.2336164,-7.801098,-36.33696,-7.701453,1008.257
5.536441803,-0.7108681,0.4322179,-0.2412063,0.04202163,0.9603381,-0.2289096,-7.801098,-36.33696,-7.701453,1008.257
5.541466713,-0.587348,0.7934201,-0.4244025,0.03761809,0.9642144,-0.2293365,-7.801098,-36.33696,-7.701453,1008.257
5.546491146,-0.7108681,0.8536204,-0.3022717,0.04243189,0.9671233,-0.2221188,-7.801098,-36.33696,-7.701453,1008.259
5.551515579,-0.9579083,0.8536204,-0.2412063,0.03805238,0.9686238,-0.2316751,-7.801098,-36.33696,-7.701453,1008.259
5.556540489,-1.328469,1.094422,-0.05801012,0.03947398,0.9715367,-0.2282865,-7.801098,-36.33696,-7.701453,1008.259
5.561564922,-0.9579083,1.154622,-0.05801012,0.03472566,0.9627782,-0.2360577,-8.108637,-36.70952,-7.249478,1008.259
5.566589832,-1.081428,1.094422,-0.05801012,0.03466443,0.9681631,-0.2388625,-8.108637,-36.70952,-7.249478,1008.259
5.571614266,-0.8343882,0.9138207,-0.1801409,0.03522012,0.9618225,-0.2384647,-8.108637,-36.70952,-7.249478,1008.259
5.576638699,-0.2167878,0.6730193,0.3083822,0.02985979,0.9646971,-0.2360304,-8.108637,-36.70952,-7.249478,1008.259
5.581663609,-0.4638279,0.5526186,-0.1190755,0.03277358,0.9641924,-0.2307707,-8.108637,-36.70952,-7.249478,1008.259
5.586684227,-0.4638279,0.3118172,-0.05801012,0.0318085,0.9637312,-0.235565,-8.108637,-36.70952,-7.249478,1008.259
5.591708660,-0.525588,0.1914164,-0.05801012,0.0279386,0.9632211,-0.2360481,-8.108637,-36.70952,-7.249478,1008.259
5.699738026,-0.3403079,0.3118172,-0.1190755,0.04150813,0.9628065,-0.2336669,-8.476757,-37.08309,-7.252564,1008.259
5.702250004,-0.2785478,0.1914164,-0.1801409,0.03952729,0.9666857,-0.2321796,-8.476757,-37.08309,-7.252564,1008.259
5.707274914,-0.4638279,0.4322179,-0.05801012,0.03668671,0.9608104,-0.2317739,-8.476757,-37.08309,-7.252564,1008.259
5.712299347,-0.4020679,0.4322179,0.1251861,0.0415512,0.9589178,-0.2356321,-8.109938,-36.70909,-6.79476,1008.257
5.717323780,-0.09326766,0.5526186,0.1251861,0.03913519,0.9584042,-0.2342005,-8.109938,-36.70909,-6.79476,1008.257
5.722348690,-0.03150762,0.4322179,0.1862515,0.03766186,0.9603125,-0.2293863,-8.109938,-36.70909,-6.79476,1008.257
5.727373123,0.1537725,0.4322179,-0.05801012,0.0385426,0.9681326,-0.2307239,-8.109938,-36.70909,-6.79476,1008.257
5.732398033,0.1537725,0.4322179,0.1251861,0.03663608,0.9652264,-0.2355488,-8.109938,-36.70909,-6.79476,1008.257
5.737425804,-0.1550277,0.4924182,-0.1801409,0.03563039,0.9686078,-0.2316739,-8.109938,-36.70909,-6.79476,1008.257
5.742447376,-0.09326766,0.4924182,0.003055274,0.03177161,0.9671189,-0.2316906,-8.109938,-36.70909,-6.79476,1008.257
5.747471810,-0.2785478,0.4924182,0.06412067,0.03613719,0.9666501,-0.2302624,-8.109938,-36.70909,-6.79476,1008.257
5.752496243,-0.03150762,0.3720175,0.003055274,0.03711675,0.9656844,-0.2307542,-8.109938,-36.70909,-6.79476,1008.257
5.757521153,-0.2167878,0.6730193,-0.3633371,0.03228743,0.9642222,-0.235559,-8.110523,-36.33992,-7.703166,1008.257
5.762545586,-0.2167878,0.4322179,0.003055274,0.03716582,0.961298,-0.231289,-8.110523,-36.33992,-7.703166,1008.257
5.767570496,0.03025243,0.3118172,-0.1190755,0.03762554,0.9633049,-0.2389261,-8.110523,-36.33992,-7.703166,1008.257
5.875599384,-0.1550277,0.612819,0.1862515,0.04150423,0.9632645,-0.2293509,-7.4279,-36.70301,-7.24571,1008.265
5.878108025,-0.2785478,0.4924182,0.06412067,0.03132725,0.9636686,-0.2269453,-7.4279,-36.70301,-7.24571,1008.265
5.880620003,-0.09326766,0.5526186,0.1251861,0.02889257,0.9646611,-0.2317202,-7.4279,-36.70301,-7.24571,1008.265
5.885644913,-0.09326766,0.612819,0.2473169,0.03617054,0.9637138,-0.2288631,-7.4279,-36.70301,-7.24571,1008.265
5.890669346,-0.03150762,0.4322179,0.06412067,0.03958676,0.9613338,-0.2341634,-7.4279,-36.70301,-7.24571,1008.265
5.895697594,-0.03150762,0.4322179,0.2473169,0.03471402,0.9637669,-0.2379607,-7.4279,-36.70301,-7.24571,1008.265
5.900718689,-0.2785478,0.4924182,0.06412067,0.03464465,0.9700745,-0.2330913,-7.4279,-36.70301,-7.24571,1008.265
5.905743599,0.03025243,0.3118172,0.2473169,0.03475669,0.9602702,-0.2260328,-8.108637,-36.70952,-7.249478,1008.265
5.910768032,-0.2167878,0.2516168,0.1251861,0.03706205,0.9705617,-0.230692,-8.108637,-36.70952,-7.249478,1008.265
5.915792465,-0.1550277,0.2516168,0.06412067,0.03708109,0.969049,-0.2235278,-8.108637,-36.70952,-7.249478,1008.265
5.920817375,-0.1550277,0.3720175,0.003055274,0.03570715,0.9617761,-0.2312821,-8.108637,-36.70952,-7.249478,1008.265
5.925841808,-0.1550277,0.3720175,0.003055274,0.03617741,0.9631996,-0.2250385,-8.108637,-36.70952,-7.249478,1008.265
5.930866718,-0.1550277,0.3720175,-0.05801012,0.03760983,0.9647549,-0.236992,-8.108637,-36.70952,-7.249478,1008.265
5.935891151,-0.3403079,0.3720175,0.003055274,0.03716052,0.9617825,-0.230804,-8.108637,-36.70952,-7.249478,1008.265
5.940915585,-0.4020679,0.5526186,0.003055274,0.03810127,0.9642408,-0.2326888,-8.108637,-36.70952,-7.249478,1008.265
5.945940495,-0.4020679,0.3720175,0.003055274,0.03517491,0.9661362,-0.227395,-8.108637,-36.70952,-7.249478,1008.265
6.056482315,-0.09326766,0.7934201,0.2473169,0.03326467,0.9636846,-0.2274251,-8.108637,-36.70952,-7.249478,1008.267
6.058994770,0.09201248,0.7332197,0.1251861,0.03280728,0.9612494,-0.2284137,-8.108637,-36.70952,-7.249478,1008.267
6.061506748,-0.09326766,0.6730193,0.06412067,0.03328691,0.9617271,-0.2264923,-8.108637,-36.70952,-7.249478,1008.267
6.066531658,-0.3403079,0.5526186,0.1862515,0.03374343,0.964179,-0.227898,-8.108637,-36.70952,-7.249478,1008.267
6.071556091,0.2155325,0.4322179,0.2473169,0.03180601,0.9641628,-0.2274182,-8.108637,-36.70952,-7.249478,1008.267
6.076576710,-0.3403079,0.4924182,0.1862515,0.03081428,0.9661272,-0.230266,-8.108637,-36.70952,-7.249478,1008.265
6.081601620,-0.2785478,0.3118172,0.1251861,0.03418796,0.967626,-0.2321645,-8.108637,-36.70952,-7.249478,1008.265
6.086626053,-0.3403079,-0.04938498,0.2473169,0.03853678,0.968627,-0.2316754,-8.108637,-36.70952,-7.249478,1008.265
6.091650963,-0.3403079,-0.04938498,0.1251861,0.03616524,0.9641982,-0.2283781,-8.108637,-36.70952,-7.249478,1008.265
6.096675396,-0.2167878,0.2516168,0.2473169,0.03515041,0.9681366,-0.234553,-8.108637,-36.70952,-7.249478,1008.265
6.101699829,-0.4020679,0.1914164,-0.1190755,0.03954935,0.9647315,-0.2317256,-8.483133,-36.34304,-7.250503,1008.265
6.106724739,-0.2167878,0.4322179,0.1862515,0.03710617,0.9666532,-0.2297841,-8.483133,-36.34304,-7.250503,1008.265
6.111748695,-0.4020679,0.07101572,0.1862515,0.03619102,0.9617893,-0.2327189,-8.483133,-36.34304,-7.250503,1008.265
6.116776466,-0.525588,0.3118172,0.1251861,0.0356422,0.9676158,-0.229292,-8.483133,-36.34304,-7.250503,1008.267
6.121798039,-0.4638279,0.4322179,0.1862515,0.03660855,0.9676684,-0.2359965,-8.483133,-36.34304,-7.250503,1008.267
6.126823425,-0.2785478,0.2516168,0.3083822,0.0386072,0.9622995,-0.2336716,-8.483133,-36.34304,-7.250503,1008.267
6.239877224,-0.7108681,0.5526186,0.3083822,0.0356745,0.9646993,-0.2307659,-8.107523,-36.70988,-7.639237,1008.267
6.242389202,-0.7108681,0.6730193,0.430513,0.03858532,0.9642506,-0.2336467,-8.107523,-36.70988,-7.639237,1008.267
6.247413635,-0.7108681,0.6730193,0.2473169,0.03569464,0.9627814,-0.2355794,-8.107523,-36.70988,-7.639237,1008.267
6.252438545,-0.7108681,0.7934201,0.3694476,0.02893458,0.9607922,-0.2365585,-7.801098,-36.33696,-7.701453,1008.267
6.257462978,-0.3403079,0.5526186,0.6747746,0.03043119,0.9569064,-0.2375667,-7.801098,-36.33696,-7.701453,1008.267
6.262487412,0.2772926,0.1914164,0.430513,0.0285476,0.9520295,-0.2395434,-7.801098,-36.33696,-7.701453,1008.267
6.267512322,0.8948931,-0.2299861,0.3694476,0.02991222,0.9598626,-0.2423178,-7.801098,-36.33696,-7.701453,1008.267
6.272536755,1.080173,-0.4105872,0.2473169,0.02697702,0.962694,-0.2312652,-7.801098,-36.33696,-7.701453,1008.267
6.277557373,0.9566531,-0.5309879,0.5526438,0.02692302,0.9675582,-0.2292876,-7.801098,-36.33696,-7.701453,1008.267
6.282582283,0.5860928,-0.5309879,0.1251861,0.03225776,0.9670891,-0.2269022,-7.801098,-36.33696,-7.701453,1008.267
6.287606716,0.3390526,-0.711589,0.1862515,0.02737372,0.9705043,-0.2316448,-7.801098,-36.33696,-7.701453,1008.267
6.292631626,0.2772926,-0.3503868,0.1862515,0.0341971,0.9670689,-0.2221146,-7.801098,-36.33696,-7.701453,1008.267
6.297656059,0.03025243,-0.3503868,-0.05801012,0.03859941,0.9632156,-0.2250397,-7.801098,-36.33696,-7.701453,1008.267
6.302680492,0.1537725,-0.3503868,-0.05801012,0.04244003,0.9662006,-0.229793,-8.109938,-36.70909,-6.79476,1008.267
6.307705402,0.2772926,0.1312161,-0.1801409,0.04055097,0.9618115,-0.2317634,-8.109938,-36.70909,-6.79476,1008.267
6.312729836,0.5243328,0.3118172,0.06412067,0.04297279,0.9618307,-0.2322435,-8.109938,-36.70909,-6.79476,1008.267
