Time (s),Gyroscope X (deg/s),Gyroscope Y (deg/s),Gyroscope Z (deg/s),Accelerometer X (g),Accelerometer Y (g),Accelerometer Z (g),Magnetometer X (uT),Magnetometer Y (uT),Magnetometer Z (uT),Barometer (hPa)
0.000000000,-0.1425635,0.06901825,-0.03279122,0.4109242,0.0537511,0.9144507,-24.85112,-4.263822,-63.52605,1008.806
0.004930496,0.16355,0.009024013,-0.03277062,0.4138755,0.04749156,0.9110324,-24.85112,-4.263822,-63.52605,1008.806
0.009860516,-0.08137187,0.06898807,-0.03276917,0.4138626,0.05134173,0.917758,-24.85112,-4.263822,-63.52605,1008.806
0.014791012,-0.08130153,0.06896357,-0.03269117,0.4100128,0.04551682,0.9157892,-24.85112,-4.263822,-63.52605,1008.81
0.019721985,-0.02004566,0.00893167,-0.03268977,0.411925,0.04940524,0.9139215,-24.85112,-4.263822,-63.52605,1008.81
0.024652004,-0.08125709,-0.1111076,0.02825351,0.4099762,0.05035849,0.9144134,-24.88171,-3.515357,-64.28715,1008.81
0.029582500,0.04126123,0.1288599,0.0282549,0.4128847,0.0518233,0.9163337,-24.88171,-3.515357,-64.28715,1008.81
0.034512520,-0.01998872,0.008839522,-0.03270473,0.4095019,0.04842313,0.9134375,-24.88171,-3.515357,-64.28715,1008.81
0.039443016,-0.203629,0.1287734,0.08914215,0.414358,0.04797851,0.9110371,-24.88171,-3.515357,-64.28715,1008.81
0.044373035,0.04139502,0.1287302,0.02820169,0.4138562,0.05182971,0.916332,-24.88171,-3.515357,-64.28715,1008.81
0.049303532,-0.08107903,0.008709889,-0.09368064,0.4080544,0.04600469,0.9100717,-24.88171,-3.515357,-64.28715,1008.81
0.054234028,-0.01980407,0.248621,0.1499926,0.411454,0.04842324,0.9177289,-24.88171,-3.515357,-64.28715,1008.81
0.059164047,-0.142182,0.06853681,0.08903306,0.4085841,0.04211393,0.9181389,-24.88171,-3.515357,-64.28715,1008.81
0.064094543,-0.08092633,0.12852,-0.03286835,0.4056385,0.0459703,0.91628,-24.88171,-3.515357,-64.28715,1008.81
0.069024563,0.04159179,-0.0515076,0.02809417,0.411931,0.04939676,0.9167848,-24.88171,-3.515357,-64.28715,1008.81
0.073955536,0.04156566,0.06848307,-0.03284621,0.4066032,0.0459866,0.9129376,-24.49424,-3.888505,-63.91367,1008.81
0.078885078,-0.01966525,0.0684212,-0.03282558,0.409516,0.04696625,0.9153297,-24.49424,-3.888505,-63.91367,1008.81
0.083816052,0.1027182,0.008446176,0.02811778,0.4148254,0.05231845,0.916813,-24.49424,-3.888505,-63.91367,1008.81
0.088746548,-0.1422039,-0.05154771,-0.03278434,0.4128862,0.04990527,0.9105848,-24.49424,-3.888505,-63.91367,1008.81
0.093677998,0.1639863,0.008473258,0.1500236,0.4138804,0.0489216,0.9182073,-24.49424,-3.888505,-63.91367,1008.81
0.098607063,-0.08095513,0.008467939,0.0281413,0.4104889,0.04649174,0.9143679,-24.49424,-3.888505,-63.91367,1008.81
0.103537083,0.1027678,0.008443777,0.02810448,0.4090447,0.04502666,0.9157854,-24.49424,-3.888505,-63.91367,1008.81
0.108467579,-0.08093037,-0.1115387,0.02812511,0.4109721,0.04841438,0.9196387,-24.49424,-3.888505,-63.91367,1008.81
0.113398075,0.04156851,-0.05149888,0.02806916,0.4118893,0.05424549,0.9130228,-24.49424,-3.888505,-63.91367,1008.81
0.118328095,-0.01964316,0.06849177,0.0280898,0.4109736,0.04649637,0.9138898,-24.49424,-3.888505,-63.91367,1008.81
0.123259068,0.102798,0.1284373,0.02811044,0.4158272,0.04797117,0.916761,-23.74421,-4.262461,-63.92356,1008.81
0.130654335,-0.08091323,0.008395683,0.08900671,0.4119307,0.04843916,0.9134331,-23.74421,-4.262461,-63.92356,1008.81
0.135580540,0.04156641,0.06841668,0.02802805,0.4114208,0.05134406,0.9115586,-23.74421,-4.262461,-63.92356,1008.807
0.140510559,-0.2645029,0.2483394,-0.0329123,0.4090679,0.04211996,0.9171835,-23.74421,-4.262461,-63.92356,1008.807
0.145441532,0.0417257,0.06825538,0.02801198,0.4129055,0.04939893,0.9182147,-23.74421,-4.262461,-63.92356,1008.807
0.150371075,-0.08072932,0.06823134,-0.2156774,0.4100174,0.04598926,0.9196126,-23.74421,-4.262461,-63.92356,1008.807
0.155302525,0.2866271,-0.1117396,-0.09377302,0.4138661,0.04942088,0.9129635,-23.74421,-4.262461,-63.92356,1008.807
0.160232544,-0.0808202,0.008307796,0.02805481,0.4085233,0.04986371,0.9148876,-23.74421,-4.262461,-63.92356,1008.807
0.165162563,-0.01954541,0.008302581,-0.09380829,0.4153436,0.04652804,0.9129274,-23.74421,-4.262461,-63.92356,1008.807
0.170096397,-0.08075715,-0.1116986,-0.09374937,0.4133961,0.04700037,0.9124593,-24.49992,-3.51238,-63.91794,1008.807
0.175023079,-0.0194824,0.06831843,-0.09370961,0.4080763,0.04357891,0.9124299,-24.49992,-3.51238,-63.91794,1008.807
0.179953575,0.1641442,0.008286927,-0.09365074,0.4109648,0.04890378,0.9177354,-24.49992,-3.51238,-63.91794,1008.807
0.184887409,0.1028363,0.06825145,-0.0326883,0.4143673,0.04748629,0.9138948,-24.49992,-3.51238,-63.91794,1008.807
0.189814091,0.04154767,-0.1717269,0.02825497,0.4104398,0.05326698,0.9134915,-24.49992,-3.51238,-63.91794,1008.807
0.194744587,0.04150234,-0.111687,-0.03268552,0.4109739,0.04745396,0.9172414,-24.49992,-3.51238,-63.91794,1008.807
0.199674606,-0.01976699,0.06827354,0.08919963,0.4070889,0.0459898,0.9129367,-24.49992,-3.51238,-63.91794,1008.807
0.204605579,0.1026742,0.06828718,0.02823999,0.4094799,0.05228601,0.9158682,-24.49992,-3.51238,-63.91794,1008.807
0.209535122,-0.1422479,-0.1117026,-0.03270049,0.4173166,0.04266668,0.914311,-24.49992,-3.51238,-63.91794,1008.807
0.214466095,-0.01978742,-0.0516627,-0.2764092,0.410498,0.04504193,0.9138739,-24.49992,-3.51238,-63.91794,1008.809
0.219396591,-0.08092207,0.06836575,0.02832074,0.4085234,0.04842661,0.9100988,-24.86073,-4.265714,-63.90233,1008.809
0.224326611,-0.2032808,0.06830396,-0.09352338,0.4090447,0.04502666,0.9157854,-24.86073,-4.265714,-63.90233,1008.809
0.229257107,0.1641718,-0.0517161,-0.03258017,0.4070569,0.05130391,0.9153842,-24.86073,-4.265714,-63.90233,1008.809
0.234187126,-0.1419745,-0.05166477,-0.03252143,0.4114416,0.0489197,0.9134396,-24.86073,-4.265714,-63.90233,1008.809
0.239117622,0.04172903,-0.05165116,-0.03253927,0.4129107,0.04651766,0.911023,-24.86073,-4.265714,-63.90233,1008.809
0.244048119,0.04172205,-0.1115884,-0.03249969,0.4138566,0.0513502,0.9148948,-24.86073,-4.265714,-63.90233,1008.809
0.248978138,-0.01954742,-0.05154862,-0.03247928,0.4153045,0.05185204,0.9120344,-24.86073,-4.265714,-63.90233,1008.809
0.253909111,-0.01953514,-0.1714934,-0.09338161,0.4104574,0.04988924,0.9105892,-24.86073,-4.265714,-63.90233,1008.809
0.258838654,-0.0195421,-0.05140849,0.02848425,0.4167753,0.04992668,0.9120095,-24.86073,-4.265714,-63.90233,1008.809
0.263769627,0.04169421,0.06852558,0.1502927,0.4138725,0.0474958,0.9096007,-24.86073,-4.265714,-63.90233,1008.809
0.268699646,-0.0808185,0.1284523,-0.0325508,0.4119302,0.05035577,0.9196593,-24.49424,-3.888505,-63.91367,1008.809
0.273630142,-0.01954371,0.06843953,0.1501996,0.4109929,0.04359532,0.9133791,-24.49424,-3.888505,-63.91367,1008.809
0.278560638,-0.0195122,0.06837769,0.0891825,0.4090219,0.04745385,0.91295,-24.49424,-3.888505,-63.91367,1008.809
0.283490658,0.1029096,0.06833474,-0.03268073,0.4061388,0.04403712,0.9167339,-24.49424,-3.888505,-63.91367,1008.809
0.288421154,0.1028835,0.008378614,-0.03267934,0.4105158,0.0426218,0.9143233,-24.49424,-3.888505,-63.91367,1008.809
0.293351173,-0.1420196,-0.1715547,-0.09360069,0.4114359,0.04988577,0.9139279,-24.49424,-3.888505,-63.91367,1008.809
0.298281670,0.1029465,-0.0514886,0.02832273,0.412405,0.05037451,0.914409,-24.49424,-3.888505,-63.91367,1008.809
0.303212643,-0.01952774,-0.05145626,0.08922768,0.4157814,0.05426266,0.9158791,-24.49424,-3.888505,-63.91367,1008.809
0.310607910,0.04171469,0.008580793,0.02825914,0.4133716,0.05038799,0.9120212,-24.49424,-3.888505,-63.91367,1008.809
0.315537453,0.04165002,0.008613091,0.02822225,0.4124306,0.04698548,0.9153244,-25.22738,-3.888466,-63.46053,1008.809
0.320468426,-0.0808242,0.008569989,-0.2155247,0.4129001,0.0498855,0.9172658,-25.22738,-3.888466,-63.46053,1008.809
0.325398922,0.04167463,0.008583453,-0.03267851,0.410001,0.04792847,0.9182032,-25.22738,-3.888466,-63.46053,1008.809
0.330328941,0.04166768,0.008578058,0.2109947,0.4114604,0.04649815,0.9143661,-25.22738,-3.888466,-63.46053,1008.809
0.335255623,-0.08076807,0.1885384,0.02817048,0.4080583,0.04743614,0.9167694,-25.22738,-3.888466,-63.46053,1008.811
0.340185165,0.04174995,-0.05153435,0.1499408,0.4094825,0.05036658,0.9105965,-25.22738,-3.888466,-63.46053,1008.811
0.345116139,-0.2031531,0.06843748,-0.03288329,0.415363,0.04458459,0.9157684,-25.22738,-3.888466,-63.46053,1008.811
0.350046635,-0.01939191,0.008443598,0.02804096,0.4099894,0.04746592,0.9110394,-25.22738,-3.888466,-63.46053,1008.811
0.354976654,-0.01941819,0.1284155,-0.09382213,0.4104935,0.04696419,0.9181911,-25.22738,-3.888466,-63.46053,1008.811
0.359907150,0.04177956,0.008338775,-0.09383974,0.4119541,0.04649006,0.9181829,-25.22738,-3.888466,-63.46053,1008.811
0.364837170,0.04173407,0.06830326,0.02804554,0.410937,0.05133803,0.9125139,-24.49424,-3.888505,-63.91367,1008.811
0.369767666,-0.01951617,0.0682792,0.1498351,0.4080147,0.0522877,0.9120531,-24.49424,-3.888505,-63.91367,1008.811
0.374698162,-0.08072793,-0.05172201,-0.1548536,0.4089833,0.05229835,0.9106197,-24.49424,-3.888505,-63.91367,1008.811
0.379628182,-0.01947243,-0.05172721,0.08887726,0.4133908,0.04748694,0.9115105,-24.49424,-3.888505,-63.91367,1008.815
0.384559155,0.04172536,0.1882408,0.08885971,0.4114128,0.05518717,0.9206703,-24.49424,-3.888505,-63.91367,1008.815
0.389488697,0.1029232,0.008194458,0.08884216,0.409512,0.0469719,0.9134208,-24.49424,-3.888505,-63.91367,1008.815
0.394419670,-0.01960877,0.008245844,0.02782533,0.4128951,0.04989256,0.9148797,-24.49424,-3.888505,-63.91367,1008.815
0.399349690,0.04160834,0.06819154,-0.09401849,0.4089987,0.05036055,0.9115518,-24.49424,-3.888505,-63.91367,1008.815
0.404280186,-0.1420514,0.008160133,-0.03301755,0.4153374,0.04797362,0.914853,-24.49424,-3.888505,-63.91367,1008.815
0.409210682,0.1029339,-0.05183357,0.02788766,0.4114701,0.04552643,0.9157866,-24.49424,-3.888505,-63.91367,1008.815
0.414140701,-0.01957877,0.0681573,0.02788927,0.4104855,0.04697549,0.9143735,-24.8721,-3.513464,-63.91087,1008.815
0.419071198,-0.1420145,0.06815217,0.0887945,0.4124134,0.0498837,0.9167895,-24.8721,-3.513464,-63.91087,1008.811
0.424001217,-0.08072051,0.008139629,0.02787339,0.412434,0.04650174,0.9153188,-24.8721,-3.513464,-63.91087,1008.811
0.428931713,-0.01944577,0.06814194,-0.03306686,0.4104546,0.05085108,0.9125092,-24.8721,-3.513464,-63.91087,1008.811
0.433861733,0.04179047,0.008072864,0.02783837,0.4133964,0.04795797,0.915811,-24.8721,-3.513464,-63.91087,1008.811
0.438792229,-0.08066459,-0.05195847,0.02780175,0.4109489,0.04892638,0.9101,-24.8721,-3.513464,-63.91087,1008.811
0.443723202,-0.2030619,-0.05194467,-0.03311932,0.4119101,0.05182112,0.9149038,-24.8721,-3.513464,-63.91087,1008.811
0.448653221,0.04188475,0.008057687,0.02784337,0.4090723,0.04163481,0.9176552,-24.8721,-3.513464,-63.91087,1008.811
0.453583717,0.164345,0.1280486,-0.09403874,0.4099672,0.0503712,0.9101185,-24.8721,-3.513464,-63.91087,1008.811
0.458513737,0.04185137,-0.171937,-0.09401795,0.4114614,0.04649674,0.9148433,-24.8721,-3.513464,-63.91087,1008.813
0.463444233,0.04182507,0.06810647,0.02786746,0.4148178,0.05185024,0.9115581,-24.10517,-4.261339,-63.47749,1008.813
0.468374729,-0.01942523,-0.1118832,-0.03307279,0.4148296,0.04943859,0.9091441,-24.10517,-4.261339,-63.47749,1008.813
0.473304749,0.041811,0.008145396,-0.03307115,0.409033,0.04600121,0.9134105,-24.10517,-4.261339,-63.47749,1008.813
0.478235245,-0.01943929,0.06811001,0.1497178,0.4148336,0.04943294,0.911053,-24.10517,-4.261339,-63.47749,1008.813
0.483165264,-0.0806511,0.06804838,-0.1549134,0.4114161,0.05230872,0.9125242,-24.10517,-4.261339,-63.47749,1008.813
0.490561485,-0.01933186,-0.05195519,-0.09395947,0.4104779,0.04650728,0.9091185,-24.10517,-4.261339,-63.47749,1008.813
0.495491028,-0.0805245,0.06799807,0.0279259,0.4119296,0.04987767,0.9177448,-24.10517,-4.261339,-63.47749,1008.813
0.500422001,-0.0193076,0.007966775,0.08879282,0.4138459,0.05232334,0.912997,-24.10517,-4.261339,-63.47749,1008.813
0.505352020,-0.08048102,0.0679315,0.02779515,0.412389,0.05183422,0.9115624,-24.10517,-4.261339,-63.47749,1008.813
0.510282517,-0.1416737,0.3077677,0.08866215,0.4114594,0.04649957,0.9138889,-24.49424,-3.888505,-63.91367,1008.813
0.515213013,-0.1415847,0.0676578,-0.03325816,0.4114242,0.05086032,0.911553,-24.49424,-3.888505,-63.91367,1008.813
0.520143032,0.04213784,-0.0523807,0.02768547,0.4104831,0.04745782,0.9148563,-24.49424,-3.888505,-63.91367,1008.813
0.525073528,0.04209213,0.06757282,0.02764894,0.4104623,0.04988218,0.9129753,-24.49424,-3.888505,-63.91367,1008.813
0.530003548,-0.2027919,-0.05244678,0.149477,0.411484,0.04311195,0.9143271,-24.49424,-3.888505,-63.91367,1008.813
0.534930229,-0.01905017,0.06754448,0.08851782,0.4119646,0.04455933,0.916729,-24.49424,-3.888505,-63.91367,1008.813
0.539860726,-0.08018529,0.1274906,0.08850049,0.4061404,0.0445138,0.9191256,-24.49424,-3.888505,-63.91367,1008.815
0.544790745,-0.1413589,0.06744079,-0.03338145,0.4124306,0.04698548,0.9153244,-24.49424,-3.888505,-63.91367,1008.815
0.549721241,0.1035683,-0.1125485,-0.03339875,0.4129443,0.04311733,0.9157561,-24.49424,-3.888505,-63.91367,1008.815
0.554651261,0.0422984,-0.05250802,0.1493904,0.4119183,0.05037272,0.9139326,-24.49424,-3.888505,-63.91367,1008.815
0.559581757,0.1647391,-0.05245619,0.08833558,0.4119563,0.04505013,0.9143485,-24.86642,-3.88959,-63.9066,1008.815
0.564511776,0.04216834,0.007565346,-0.09441157,0.4109555,0.049396,0.9148777,-24.86642,-3.88959,-63.9066,1008.815
0.569442272,-0.01904371,-0.2923069,-0.09433313,0.4114793,0.04407661,0.9152927,-24.86642,-3.88959,-63.9066,1008.815
0.574373245,-0.01901251,0.007725377,-0.03335112,0.4099758,0.05083799,0.9158506,-24.86642,-3.88959,-63.9066,1008.815
0.579303265,-0.08020535,0.007682826,-0.03334931,0.4138848,0.04699934,0.9138901,-24.86642,-3.88959,-63.9066,1008.815
0.584233761,-0.1413982,0.007696848,-0.09423196,0.4099624,0.05277297,0.9158729,-24.86642,-3.88959,-63.9066,1008.815
0.589163780,0.0423242,-0.1122663,0.02767271,0.4197363,0.04413252,0.9148005,-24.86642,-3.88959,-63.9066,1008.815
0.594094277,-0.01890718,0.06776996,-0.09419015,0.4051427,0.04741832,0.9162976,-24.86642,-3.88959,-63.9066,1008.815
0.599024773,0.04232872,0.06767084,-0.09416925,0.4109696,0.04793912,0.9167698,-24.86642,-3.88959,-63.9066,1008.815
0.603954792,0.2259742,-0.05231113,0.1495617,0.4134108,0.04602159,0.916266,-24.86642,-3.88959,-63.9066,1008.815
0.608885288,0.04223711,0.06768005,-0.09416577,0.4070982,0.04549758,0.9157945,-24.12206,-3.887421,-63.92075,1008.815
0.613815308,0.1034154,-0.05232078,0.0885659,0.4124369,0.0464975,0.9167504,-24.12206,-3.887421,-63.92075,1008.815
0.618745804,0.0421456,-0.112333,-0.03333521,0.4104941,0.04744228,0.9201056,-24.12206,-3.887421,-63.92075,1008.815
0.623675823,0.1033431,-0.1722699,0.02762761,0.4148844,0.04313439,0.9143209,-24.12206,-3.887421,-63.92075,1008.815
0.628606796,-0.2028034,0.0678115,-0.03327421,0.4143504,0.04751031,0.9057822,-24.12206,-3.887421,-63.92075,1008.815
0.633537769,-0.1415482,0.06776891,-0.03321503,0.4158104,0.05038989,0.9167889,-24.12206,-3.887421,-63.92075,1008.815
0.638467312,0.04223205,0.06768864,-0.0332133,0.4109313,0.05230411,0.9130023,-24.12206,-3.887421,-63.92075,1008.815
0.643397808,0.04224398,0.007657539,0.02771116,0.4095431,0.0440539,0.9186367,-24.12206,-3.887421,-63.92075,1008.815
0.648327828,-0.1414161,0.06762246,-0.03322899,0.411924,0.04940665,0.9134443,-24.12206,-3.887421,-63.92075,1008.815
0.653263092,-0.3249994,0.06756113,-0.03324639,0.4105222,0.04213382,0.9157493,-24.12206,-3.887421,-63.92075,1008.815
0.658188820,0.04245276,0.007605497,0.0276781,0.4124269,0.04794873,0.9167672,-25.60524,-3.513425,-63.45772,1008.815
0.665584088,0.04245122,0.06756806,-0.09409777,0.4148873,0.04313016,0.9157526,-25.60524,-3.513425,-63.45772,1008.815
0.670514107,0.04240532,0.127533,0.02776854,0.410932,0.0513451,0.9101279,-25.60524,-3.513425,-63.45772,1008.815
0.675444603,-0.08005013,-0.05249397,0.02777023,0.4114735,0.04504269,0.915781,-25.60524,-3.513425,-63.45772,1008.815
0.680375576,0.1036337,0.007527586,0.02779107,0.4138931,0.04411383,0.90813,-25.60524,-3.513425,-63.45772,1008.815
0.685305596,0.04236386,0.00748517,-0.03316827,0.4138389,0.05233323,0.9096565,-25.60524,-3.513425,-63.45772,1008.815
0.690236092,-0.01886754,-0.05248927,0.02773703,0.4095267,0.04599312,0.9172273,-25.60524,-3.513425,-63.45772,1008.815
0.695166111,0.0423491,-0.05249398,-0.033184,0.4099497,0.05374892,0.9130207,-25.60524,-3.513425,-63.45772,1008.815
0.700096607,-0.2025543,0.127467,-0.09408589,0.4100102,0.04504155,0.9129203,-25.60524,-3.513425,-63.45772,1008.815
0.705027104,-0.01879352,0.06739838,-0.09402678,0.4114577,0.04745999,0.9162862,-24.8552,-3.887383,-63.46761,1008.817
0.709957123,-0.08000574,0.1273446,0.02785862,0.4129202,0.04458834,0.9090918,-24.8552,-3.887383,-63.46761,1008.817
0.714887619,0.1036781,0.007362839,-0.03304334,0.4119345,0.04747591,0.9119903,-24.8552,-3.887383,-63.46761,1008.817
0.719817639,0.1036322,-0.1125812,-0.03302258,0.4143784,0.04603365,0.9143553,-24.8552,-3.887383,-63.46761,1008.817
0.724748135,-0.1412713,0.1873381,0.08882451,0.416767,0.05041749,0.9096289,-24.8552,-3.887383,-63.46761,1008.817
0.729679108,0.04243184,-0.1726545,0.02784596,0.4114192,0.05086738,0.9091669,-24.8552,-3.887383,-63.46761,1008.817
0.734604836,-0.08004286,0.06737061,-0.09397873,0.4124215,0.0484353,0.9158183,-24.8552,-3.887383,-63.46761,1008.817
0.739535332,-0.01882626,-0.05266771,-0.03297781,0.409998,0.04793271,0.9167715,-24.8552,-3.887383,-63.46761,1008.817
0.744465351,0.1036336,0.06732368,-0.03297623,0.4148658,0.04651354,0.916746,-24.8552,-3.887383,-63.46761,1008.817
0.749395847,-0.01884107,0.007330503,0.02798636,0.4071097,0.04356544,0.9148178,-24.8552,-3.887383,-63.46761,1008.817
0.754325867,0.1035803,0.06737101,-0.09383842,0.4104555,0.05228677,0.9177753,-24.86073,-4.265714,-63.90233,1008.817
0.759256840,0.04232972,-0.05261078,-0.03289501,0.418214,0.05331544,0.914432,-24.86073,-4.265714,-63.90233,1008.817
0.764187336,0.1035656,0.06736173,0.02808668,0.4134078,0.04602582,0.9148343,-24.86073,-4.265714,-63.90233,1008.817
0.769117356,-0.08015228,0.1272891,0.02804989,0.4075724,0.04503823,0.9086298,-24.86073,-4.265714,-63.90233,1008.817
0.774047852,0.1035701,0.007232029,-0.154736,0.4133632,0.05087879,0.9096407,-24.86073,-4.265714,-63.90233,1008.817
0.778977871,-0.01892373,0.1871932,-0.03285068,0.4143598,0.04941279,0.9167804,-24.86073,-4.265714,-63.90233,1008.817
0.783908367,0.2260035,-0.05280331,0.0280927,0.4099831,0.0479539,0.9096133,-24.86073,-4.265714,-63.90233,1008.818
0.788838863,-0.01903459,-0.112721,0.02809419,0.4114497,0.04747129,0.9124684,-24.86073,-4.265714,-63.90233,1008.818
0.793768883,0.1033485,0.1272476,-0.0328462,0.4114339,0.04988859,0.9129735,-24.86073,-4.265714,-63.90233,1008.818
0.798699379,0.04211723,0.0671602,-0.1546519,0.4148453,0.04845839,0.9134279,-24.86073,-4.265714,-63.90233,1008.818
0.803629398,0.04212924,0.3070158,0.02817519,0.4172698,0.04895958,0.9129518,-25.23306,-3.512341,-63.46479,1008.818
0.808560371,0.04206431,-0.1130029,0.02815749,0.4099987,0.0469737,0.9138971,-25.23306,-3.512341,-63.46479,1008.818
0.813489914,0.04207635,0.1269659,-0.03278294,0.4090306,0.04648354,0.9138933,-25.23306,-3.512341,-63.46479,1008.818
0.818420887,0.04204991,0.006946635,0.02808384,0.409978,0.04939806,0.9120162,-25.23306,-3.512341,-63.46479,1008.818
0.823351383,0.04202349,0.1269194,0.02802792,0.4100367,0.04308821,0.9191018,-25.23306,-3.512341,-63.46479,1008.818
0.828283787,-0.01924617,0.006919067,0.08891391,0.4129544,0.04166611,0.9157394,-25.23306,-3.512341,-63.46479,1008.818
0.833211899,0.04200919,-0.05307386,0.08885805,0.4109769,0.04744973,0.9186731,-25.23306,-3.512341,-63.46479,1008.818
0.838141918,0.1644116,0.06693663,-0.09394685,0.4133807,0.04893817,0.9115272,-25.23306,-3.512341,-63.46479,1008.818
0.845537662,0.04192404,0.1269187,0.08883333,0.4094821,0.05084608,0.9120337,-25.23306,-3.512341,-63.46479,1008.818
0.850467682,-0.01928785,0.1868464,-0.1548752,0.4143694,0.04604636,0.9100603,-25.23306,-3.512341,-63.46479,1008.818
0.855398178,0.1031531,0.006819781,-0.03300894,0.4099712,0.05036555,0.9120273,-24.49992,-3.51238,-63.91794,1008.818
0.860332489,0.04186424,0.006815497,0.0279154,0.4133987,0.04747564,0.9153283,-24.49992,-3.51238,-63.91794,1008.818
0.865259171,0.04185718,0.06681864,0.08880147,0.4109844,0.04552323,0.9157875,-24.49992,-3.51238,-63.91794,1008.818
0.870189667,-0.01937391,0.1267841,0.08876482,0.4080792,0.04357468,0.9138615,-24.49992,-3.51238,-63.91794,1008.818
0.875123978,-0.08056653,-0.1732196,-0.1549628,0.4104524,0.04989631,0.9082031,-24.49992,-3.51238,-63.91794,1008.818
0.880050182,0.2255465,0.1268133,0.1496717,0.4124219,0.0479558,0.9143811,-24.49992,-3.51238,-63.91794,1008.818
0.884980202,-0.01943359,-0.05319445,0.0277705,0.4109535,0.04939882,0.9139232,-24.49992,-3.51238,-63.91794,1008.818
0.889910698,-0.01942138,0.06675959,0.02779133,0.4085092,0.05132059,0.9129955,-24.49992,-3.51238,-63.91794,1008.818
0.894841194,0.1030004,0.06673649,-0.2159362,0.4114167,0.05278682,0.9144387,-24.49992,-3.51238,-63.91794,1008.818
1.020564556,-0.08062895,0.1862125,0.14948,0.4090663,0.04164328,0.9147919,-25.23859,-3.890673,-63.89952,1008.823
1.131493568,-0.08054599,-0.1142689,-0.2767963,0.413894,0.04554952,0.9133961,-24.48302,-3.886299,-63.47468,1008.822
1.239960671,-0.08053059,0.06537369,0.0889106,0.4119426,0.04602751,0.9110192,-24.47734,-4.262423,-63.47041,1008.828
1.244887352,0.1031728,0.005362887,-0.03293331,0.4085571,0.04598388,0.9181835,-24.86089,-3.511258,-63.47187,1008.828
1.353354931,0.1644127,-0.1743953,-0.1548208,0.4211542,0.04994565,0.9153421,-24.8552,-3.887383,-63.46761,1008.826
1.466752529,0.2254552,0.06557308,-0.09382394,0.4104975,0.04695854,0.9201,-24.8721,-3.513464,-63.91087,1008.826
1.590007305,0.04166841,0.005477954,0.08848792,0.4109798,0.04505078,0.9119642,-24.50385,-3.890398,-64.28996,1008.824
1.700940132,0.163837,0.06536961,-0.09419011,0.4119327,0.04843633,0.9143876,-23.75557,-3.510211,-63.93209,1008.828
1.816799164,0.2251043,0.06493546,0.02772403,0.4129369,0.04360673,0.9138528,-24.11085,-3.885214,-63.48176,1008.83
1.905544758,-0.02027658,0.005154517,0.02796507,0.4066008,0.04646892,0.9134204,-24.50938,-4.268729,-64.72468,1008.828
1.910471439,-0.02030231,0.1251473,-0.09389797,0.4133938,0.0474827,0.9129421,-24.50938,-4.268729,-64.72468,1008.828
2.004148006,0.04102784,-0.05512243,0.02811168,0.416297,0.04799698,0.9091247,-24.48856,-4.26463,-63.90941,1008.828
2.028799534,-0.08152976,-0.05528835,-0.03278462,0.4114389,0.04988153,0.9153596,-24.50954,-3.514272,-64.29422,1008.828
2.038661003,-0.08156194,0.06468289,0.08908289,0.4104532,0.051332,0.9134692,-24.50954,-3.514272,-64.29422,1008.828
2.050985813,-0.02020988,0.06465667,0.1498849,0.413397,0.04843606,0.9177254,-24.50954,-3.514272,-64.29422,1008.833
2.053451538,0.04102049,0.1246249,-0.03293036,0.4124159,0.04796427,0.9115179,-24.50954,-3.514272,-64.29422,1008.833
2.065777302,0.2246473,-0.05538571,0.02796753,0.4124134,0.0498837,0.9167895,-24.50954,-3.514272,-64.29422,1008.833
2.075637817,0.04088538,-0.1153424,0.08889341,0.412432,0.04650456,0.9143644,-24.49424,-3.888505,-63.91367,1008.833
2.127406597,-0.1426337,0.064536,0.08907183,0.4128827,0.05182612,0.9153793,-24.48302,-3.886299,-63.47468,1008.828
2.132332802,-0.0814162,0.1845103,0.02811227,0.4090088,0.04890932,0.9115351,-24.48302,-3.886299,-63.47468,1008.828
2.134798050,0.04105742,0.06447519,-0.0328193,0.4100273,0.04358044,0.9162442,-24.48302,-3.886299,-63.47468,1008.828
2.139731884,0.04105086,0.00446495,0.08900852,0.4109903,0.04312005,0.9105102,-24.48302,-3.886299,-63.47468,1008.828
2.144658566,-0.08144221,0.06443188,-0.03283546,0.4129096,0.04795618,0.9153347,-24.48302,-3.886299,-63.47468,1008.828
2.149589062,-0.1426343,0.004440513,0.02808877,0.4124129,0.04796851,0.9100862,-24.48302,-3.886299,-63.47468,1008.828
2.154519081,-0.02011589,0.004400034,0.089013,0.411952,0.04409818,0.909088,-24.48302,-3.886299,-63.47468,1008.828
2.159449577,-0.1425513,-0.1155234,0.08899536,0.4110032,0.04310168,0.916714,-24.48302,-3.886299,-63.47468,1008.828
2.164381504,0.1023959,0.1844167,-0.09382877,0.4138722,0.04797531,0.911038,-24.48302,-3.886299,-63.47468,1008.833
2.169310093,-0.02009725,0.06436141,0.02807565,0.4109712,0.0484158,0.9191614,-24.49992,-3.51238,-63.91794,1008.833
2.174241066,-0.08130865,0.00435124,0.1499226,0.4167563,0.05378533,0.9158718,-24.49992,-3.51238,-63.91794,1008.833
2.179170609,-0.1424816,-0.05564006,-0.03286321,0.4109209,0.05279774,0.9096673,-24.49992,-3.51238,-63.91794,1008.833
2.184101582,0.2249136,-0.05560511,0.02809931,0.416279,0.05185422,0.9134643,-24.49992,-3.51238,-63.91794,1008.833
2.189031601,-0.08127088,0.1244144,0.0890044,0.4119304,0.04891867,0.9148703,-24.49992,-3.51238,-63.91794,1008.833
2.193962097,-0.2036486,0.06438535,0.02800661,0.4089973,0.05084147,0.9125118,-24.49992,-3.51238,-63.91794,1008.833
2.198892593,-0.08111112,-0.1156585,0.08891176,0.4104405,0.05230796,0.9106171,-24.49992,-3.51238,-63.91794,1008.833
2.203822613,-0.08104093,0.004391294,0.0279523,0.4080686,0.04694251,0.9201044,-24.49992,-3.51238,-63.91794,1008.828
2.208753109,-0.01982371,-0.05561889,-0.09391074,0.4139023,0.04505872,0.9157767,-24.49992,-3.51238,-63.91794,1008.828
2.213683128,-0.08103527,-0.0556028,-0.03294814,0.4114555,0.04650522,0.91198,-24.49992,-3.51238,-63.91794,1008.828
2.218613625,-0.08098436,-0.1155564,0.02797615,0.4109545,0.04939741,0.9144005,-24.48871,-3.510173,-63.47894,1008.828
2.223547936,-0.08093348,-0.175529,-0.09386776,0.4168001,0.04749667,0.9157993,-24.48871,-3.510173,-63.47894,1008.828
2.228474140,-0.08090187,0.1244488,-0.03294347,0.4129067,0.04652331,0.9091141,-24.48871,-3.510173,-63.47894,1008.828
2.233405113,-0.2033183,0.004450027,0.02798082,0.4105203,0.04453135,0.9229354,-24.48871,-3.510173,-63.47894,1008.828
2.238334656,-0.08078102,0.06441696,0.02798239,0.4099695,0.05132597,0.9144245,-24.48871,-3.510173,-63.47894,1008.828
2.243265629,-0.01954472,0.0643388,0.02792653,0.4104609,0.0503631,0.9139352,-24.48871,-3.510173,-63.47894,1008.828
2.248195648,0.04165312,0.004272114,-0.0939365,0.4138663,0.05037848,0.9163153,-24.48871,-3.510173,-63.47894,1008.828
2.253128529,-0.0808211,0.004344817,0.0888716,0.413356,0.05376289,0.9158779,-24.48871,-3.510173,-63.47894,1008.828
2.260521412,-0.01957861,0.06427277,0.02794168,0.4157937,0.0513715,0.912028,-24.48871,-3.510173,-63.47894,1008.828
2.265451908,-0.01958554,-0.05572592,-0.09390221,0.4148513,0.04844992,0.9162912,-24.48871,-3.510173,-63.47894,1008.828
2.270382404,-0.1420213,0.1241994,0.149752,0.413812,0.05620317,0.9097011,-24.86073,-4.265714,-63.90233,1008.828
2.275312424,-0.141932,0.1841477,-0.1548983,0.4104642,0.05131646,0.9187186,-24.86073,-4.265714,-63.90233,1008.828
2.280242920,0.04182918,0.184032,0.08881339,0.4124361,0.04506181,0.9114844,-24.86073,-4.265714,-63.90233,1008.828
2.285172939,-0.1418884,0.06395808,-0.2767406,0.4065869,0.0488834,0.91488,-24.86073,-4.265714,-63.90233,1008.833
2.290103912,0.04189204,0.1239253,0.0279513,0.4162702,0.05426162,0.9173099,-24.86073,-4.265714,-63.90233,1008.833
2.295033455,-0.1417294,0.06389658,-0.09385432,0.4143608,0.04941137,0.9172575,-24.86073,-4.265714,-63.90233,1008.833
2.299964428,-0.1416788,0.123845,-0.03287262,0.4090237,0.04888814,0.9186934,-24.86073,-4.265714,-63.90233,1008.833
2.304894924,-0.01914179,-0.05619851,-0.03285197,0.409975,0.0494023,0.9105845,-24.86073,-4.265714,-63.90233,1008.833
2.309824944,-0.141597,0.0637951,0.02807227,0.4158342,0.04796129,0.9201016,-24.86073,-4.265714,-63.90233,1008.833
2.314758301,0.1033688,-0.05624098,-0.03286811,0.4124287,0.0455512,0.9095811,-24.86073,-4.265714,-63.90233,1008.833
2.319685459,-0.01910575,0.1237412,0.02809442,0.4099574,0.05278003,0.9134868,-24.87603,-3.891482,-64.28288,1008.833
2.324615955,-0.3864379,0.06371261,-0.03280769,0.4089882,0.05229129,0.9130058,-24.87603,-3.891482,-64.28288,1008.828
2.329542637,-0.2025807,-0.116312,-0.03282536,0.4104712,0.04747477,0.9091297,-24.87603,-3.891482,-64.28288,1008.828
2.334472656,0.1647945,0.06370796,0.1499443,0.4129492,0.04311027,0.9181421,-24.87603,-3.891482,-64.28288,1008.828
2.339406490,-0.0801282,0.003660519,0.1498693,0.4100001,0.04649278,0.912937,-24.87603,-3.891482,-64.28288,1008.828
2.344333172,-0.01889231,0.003714759,0.02796793,0.4144069,0.04264039,0.9167023,-24.87603,-3.891482,-64.28288,1008.828
2.349263668,0.04232435,0.003750112,0.08885396,0.4138851,0.04795694,0.9172417,-24.87603,-3.891482,-64.28288,1008.828
2.354193688,-0.08013105,0.06371748,-0.09391265,0.4138735,0.04749439,0.910078,-24.87603,-3.891482,-64.28288,1008.828
2.359126568,0.1035721,0.0636963,0.08891456,0.4153045,0.05185204,0.9120344,-24.87603,-3.891482,-64.28288,1008.828
2.364055157,-0.01888329,-0.1162906,0.1497814,0.4104928,0.04648609,0.9162768,-24.8552,-3.887383,-63.46761,1008.828
2.368985176,-0.01889066,0.06374819,0.027861,0.413909,0.04409123,0.9157655,-24.8552,-3.887383,-63.46761,1008.833
2.373917580,-0.0188788,-0.05625017,-0.2158474,0.4129136,0.04795053,0.9172435,-24.8552,-3.887383,-63.46761,1008.833
2.378845692,-0.1412957,0.06376232,0.02790254,0.413386,0.0484516,0.9124761,-24.8552,-3.887383,-63.46761,1008.833
2.383776188,-0.01877818,-0.05627374,-0.1549023,0.4119458,0.04698087,0.9158025,-24.8552,-3.887383,-63.46761,1008.833
2.388706684,-0.08002887,0.1237462,0.02794405,0.4099751,0.0479652,0.9057956,-24.8552,-3.887383,-63.46761,1008.833
2.393636704,-0.07995936,0.003747839,0.02790735,0.4109529,0.04892073,0.9120088,-24.8552,-3.887383,-63.46761,1008.833
2.398567200,-0.01870434,0.1236661,-0.03303292,0.4124472,0.04360917,0.9119448,-24.8552,-3.887383,-63.46761,1008.833
2.403497219,-0.1411214,0.06365638,-0.0939349,0.410932,0.0513451,0.9101279,-24.8552,-3.887383,-63.46761,1008.833
2.408427715,-0.141052,0.06359755,0.02793131,0.4099617,0.05229487,0.9139584,-24.8552,-3.887383,-63.46761,1008.834
2.413358688,-0.01851532,-0.1164081,0.0279329,0.4119671,0.0426399,0.9114574,-24.48871,-3.510173,-63.47894,1008.834
2.418291092,-0.1409902,-0.116335,-0.03300739,0.4080355,0.04986333,0.9139341,-24.48871,-3.510173,-63.47894,1008.834
2.423219204,-0.0796776,0.003677528,-0.09390939,0.4075646,0.04744424,0.9129526,-24.48871,-3.510173,-63.47894,1008.834
2.428149223,0.0427628,-0.0563322,0.210725,0.4104948,0.04648327,0.9172311,-24.48871,-3.510173,-63.47894,1008.834
2.435544968,0.103985,-0.1162677,0.02794963,0.4114708,0.04600453,0.9177011,-24.48871,-3.510173,-63.47894,1008.834
2.440474987,-0.01847068,0.1237031,-0.03302895,0.4153113,0.05088455,0.9120232,-24.48871,-3.510173,-63.47894,1008.834
2.445405483,-0.1409456,0.00370479,0.02791454,0.4153452,0.04700472,0.9153191,-24.48871,-3.510173,-63.47894,1008.834
2.450335503,0.04277655,0.1836493,-0.09394848,0.4129103,0.04699717,0.9124602,-24.48871,-3.510173,-63.47894,1008.834
2.455265999,0.04280738,0.06363221,0.02793688,0.4090356,0.04647648,0.9162794,-24.48871,-3.510173,-63.47894,1008.834
2.460196495,-0.01850124,-0.05638492,0.02790019,0.4134061,0.04698624,0.9172314,-24.48871,-3.510173,-63.47894,1008.834
2.465126515,-0.01848961,0.003601391,0.0279018,0.4104829,0.04650022,0.9115046,-24.86073,-4.265714,-63.90233,1008.834
2.470057488,-0.2633741,0.06356886,-0.09398034,0.4119229,0.05084516,0.917756,-24.86073,-4.265714,-63.90233,1008.834
2.474987030,0.104097,-0.1163991,-0.03305598,0.4114517,0.04746847,0.9134228,-24.86073,-4.265714,-63.90233,1008.834
2.479918003,-0.07960196,0.0635832,-0.1548807,0.4128975,0.04941023,0.914397,-24.86073,-4.265714,-63.90233,1008.834
2.484848499,-0.0183664,-0.1164036,0.1497729,0.4095015,0.04890264,0.9148747,-24.86073,-4.265714,-63.90233,1008.834
2.489778519,-0.1408029,0.003608961,0.0278716,0.4114884,0.0426268,0.9147987,-24.86073,-4.265714,-63.90233,1008.836
2.494709015,0.04293838,0.003625538,-0.09399139,0.410989,0.04599567,0.9196108,-24.86073,-4.265714,-63.90233,1008.836
2.499639034,0.1040969,0.003623258,-0.03302874,0.4123985,0.04990489,0.9096313,-24.86073,-4.265714,-63.90233,1008.836
2.504569531,-0.01839725,0.1235416,-0.03302713,0.4129283,0.04697174,0.9210501,-24.86073,-4.265714,-63.90233,1008.836
2.509499550,0.1040623,-0.05642636,-0.0939674,0.4114369,0.04988435,0.9144052,-24.86073,-4.265714,-63.90233,1008.836
2.514430046,-0.07965586,0.003559973,0.0279371,0.4148658,0.04651354,0.916746,-24.86089,-3.511258,-63.47187,1008.836
2.519361019,-0.07960581,0.003557738,-0.0939642,0.4153222,0.05086901,0.9172726,-24.86089,-3.511258,-63.47187,1008.836
2.524290562,-0.1407798,0.1235327,-0.03300157,0.4138758,0.04844915,0.9143841,-24.86089,-3.511258,-63.47187,1008.836
2.529217243,0.104147,0.003477897,0.02792276,0.415784,0.05234323,0.9106075,-24.86089,-3.511258,-63.47187,1008.836
2.534147263,-0.140776,0.06344544,0.1497316,0.4119442,0.04650419,0.9134108,-24.86089,-3.511258,-63.47187,1008.836
2.539079189,-0.07944433,0.1833262,-0.09403432,0.4123796,0.05232644,0.9087048,-24.86089,-3.511258,-63.47187,1008.836
2.544007778,-0.01818964,0.06327157,0.08873555,0.4124498,0.04408444,0.9148137,-24.86089,-3.511258,-63.47187,1008.836
2.548938751,0.04304582,-0.05678303,-0.0331274,0.4090591,0.04309028,0.9162404,-24.86089,-3.511258,-63.47187,1008.836
2.553869248,-0.2018965,0.2431201,-0.03314486,0.4114806,0.0435957,0.9143327,-24.86089,-3.511258,-63.47187,1008.836
2.558799267,-0.07937937,0.1229903,0.08868316,0.4128902,0.04989962,0.9124936,-24.86089,-3.511258,-63.47187,1008.836
2.563729763,0.04311854,0.06292442,-0.215948,0.4109926,0.04646952,0.9229569,-24.87778,-3.137339,-63.91513,1008.836
2.568659783,-0.2018239,0.06290374,0.08874397,0.4085078,0.05180151,0.9139555,-24.87778,-3.137339,-63.91513,1008.838
2.573590279,0.04317978,-0.1170638,0.02778462,0.4114542,0.04554903,0.9081511,-24.87778,-3.137339,-63.91513,1008.838
2.578520775,0.1043767,-0.05705824,-0.03315558,0.4066242,0.04451983,0.9181703,-24.87778,-3.137339,-63.91513,1008.838
2.583450794,-0.01811771,0.06293592,-0.0940192,0.4109657,0.04650766,0.9100721,-24.87778,-3.137339,-63.91513,1008.838
2.588381291,0.0431177,0.06289638,-0.09396014,0.4143319,0.05328415,0.9163479,-24.87778,-3.137339,-63.91513,1008.838
2.593311310,0.04309061,0.1228454,-0.0329401,0.4104592,0.05132353,0.9163325,-24.87778,-3.137339,-63.91513,1008.838
2.598242283,0.1042299,0.00280996,-0.03293854,0.4138754,0.04892867,0.9158213,-24.87778,-3.137339,-63.91513,1008.838
2.603172779,-0.2018788,0.1827551,0.1498504,0.4094855,0.05036234,0.9120282,-24.87778,-3.137339,-63.91513,1008.838
2.610568047,0.04307288,0.002711389,0.02790198,0.412451,0.04504063,0.9186426,-24.8552,-3.887383,-63.46761,1008.838
2.615498066,-0.07936376,0.06267942,0.08882633,0.4099649,0.05085353,0.9106012,-24.8552,-3.887383,-63.46761,1008.838
2.620428562,-0.07933314,-0.1173634,0.02792434,0.4099873,0.04890585,0.9148738,-24.8552,-3.887383,-63.46761,1008.838
2.625359059,-0.01805928,-0.1173462,-0.1548423,0.4119265,0.04748721,0.9081726,-24.8552,-3.887383,-63.46761,1008.838
2.630289078,0.04319532,-0.05734043,-0.1547833,0.4109359,0.05277655,0.9168255,-24.8552,-3.887383,-63.46761,1008.838
2.635219574,-0.07931833,-0.05728555,0.08896664,0.4065907,0.04792016,0.9134372,-24.8552,-3.887383,-63.46761,1008.838
2.640149594,-0.01806371,0.002701316,0.02796886,0.414369,0.04652587,0.9114976,-24.8552,-3.887383,-63.46761,1008.838
2.645080090,-0.07921868,0.1226391,0.08887403,0.411017,0.04068721,0.9152545,-24.8552,-3.887383,-63.46761,1008.838
2.650011063,0.0432022,-0.1173357,-0.03302728,0.4124245,0.04459926,0.9043205,-24.8552,-3.887383,-63.46761,1008.838
2.654940605,0.1043991,-0.1173186,0.02791621,0.4085407,0.04792309,0.9167742,-24.8552,-3.887383,-63.46761,1008.838
2.659871578,-0.07930011,-0.05725627,0.02789867,0.4095079,0.04841466,0.9163008,-24.8721,-3.513464,-63.91087,1008.838
2.664801598,-0.07926953,0.062738,0.1497458,0.4085184,0.04843367,0.9077127,-24.8721,-3.513464,-63.91087,1008.838
2.669732094,0.1044139,0.002710011,-0.09398185,0.4109884,0.04551757,0.9176964,-24.8721,-3.513464,-63.91087,1008.838
2.674667359,-0.01806131,-0.1172877,-0.09392281,0.4099699,0.05084646,0.9129872,-24.8721,-3.513464,-63.91087,1008.838
2.679592610,0.04315483,0.002781991,0.02792426,0.4148117,0.05329583,0.9134836,-24.8721,-3.513464,-63.91087,1008.838
2.684523106,-0.07926262,0.002761398,0.1497139,0.4124272,0.04746923,0.91533,-24.8721,-3.513464,-63.91087,1008.838
2.689453125,-0.01802728,0.1227368,-0.03311008,0.4080419,0.04937535,0.9153602,-24.8721,-3.513464,-63.91087,1008.838
2.694383621,-0.0792015,0.002720255,0.02779518,0.4109531,0.04987833,0.9153605,-24.8721,-3.513464,-63.91087,1008.838
2.699313641,-0.0179662,-0.1773037,-0.09404862,0.4071171,0.04307604,0.916721,-24.8721,-3.513464,-63.91087,1008.838
2.704245567,-0.01793567,0.1827014,0.02779852,0.4100101,0.04647865,0.9177092,-24.8721,-3.513464,-63.91087,1008.838
2.709175110,-0.01792441,0.06262834,-0.03308426,0.4094926,0.05131005,0.9187204,-24.48302,-3.886299,-63.47468,1008.838
2.714107037,-0.0791564,0.002638113,-0.0330252,0.4148287,0.05183471,0.9168074,-24.48302,-3.886299,-63.47468,1008.838
2.719035626,-0.07914513,-0.05737097,-0.03294703,0.4114117,0.05279388,0.9120526,-24.48302,-3.886299,-63.47468,1008.838
2.723965645,0.2882487,0.06262338,-0.03296461,0.4123971,0.05038581,0.9105912,-24.48302,-3.886299,-63.47468,1008.838
2.728892327,-0.140462,-0.05729888,0.08892072,0.414343,0.05183151,0.9168082,-24.48302,-3.886299,-63.47468,1008.838
2.733827591,-0.01796423,0.06267657,0.02796125,0.4114252,0.0508589,0.9120302,-24.48302,-3.886299,-63.47468,1008.836
2.738752842,-0.01795295,-0.05733996,-0.03295991,0.4124486,0.04552295,0.9191254,-24.48302,-3.886299,-63.47468,1008.836
2.743683338,-0.07914646,-0.1173302,0.08888713,0.4095336,0.04358853,0.9124272,-24.48302,-3.886299,-63.47468,1008.836
2.748613358,0.2269849,0.002664115,-0.09391779,0.4099994,0.04745179,0.9158115,-24.48302,-3.886299,-63.47468,1008.836
2.753543854,-0.0792201,0.06263217,-0.03295518,0.4080397,0.05081528,0.9191946,-24.48302,-3.886299,-63.47468,1008.836
2.758473873,0.1045017,-0.1173918,-0.0328962,0.4119383,0.04890737,0.9186881,-24.8399,-4.261615,-63.08705,1008.836
2.763404370,-0.07921675,0.002696838,0.08900822,0.4148178,0.05185024,0.9115581,-24.8399,-4.261615,-63.08705,1008.836
2.768334866,-0.01800066,0.1826232,0.02802956,0.4094828,0.04988707,0.9091593,-24.8399,-4.261615,-63.08705,1008.836
2.773264885,0.1656827,0.002561565,-0.1546797,0.4129318,0.0450509,0.9162557,-24.8399,-4.261615,-63.08705,1008.836
2.778195858,-0.07927899,0.06251084,0.08905101,0.4119751,0.04262859,0.9152751,-24.8399,-4.261615,-63.08705,1008.836
2.785590649,-0.079262,0.06252731,-0.0937437,0.412927,0.04601556,0.9172211,-24.8399,-4.261615,-63.08705,1008.836
2.790521622,-0.01796895,0.1824463,0.08904513,0.4104871,0.04745217,0.9167651,-24.8399,-4.261615,-63.08705,1008.836
2.795451641,-0.01795766,0.1223808,-0.03281801,0.4128858,0.05038478,0.9120221,-24.8399,-4.261615,-63.08705,1008.836
2.800382137,-0.01792714,0.00236449,0.02816362,0.4104596,0.05084402,0.9148953,-24.8399,-4.261615,-63.08705,1008.836
2.805312633,-0.01793511,-0.05762558,-0.03279595,0.4124227,0.04939149,0.9196472,-24.8721,-3.513464,-63.91087,1008.836
2.810247421,-0.07914787,0.1223575,-0.0327562,0.4124186,0.04700243,0.9095978,-24.8721,-3.513464,-63.91087,1008.836
2.815173149,-0.07911738,0.06227323,-0.03271649,0.4104475,0.05229808,0.9139576,-24.8721,-3.513464,-63.91087,1008.834
2.820103168,-0.07908691,0.06221526,0.08911127,0.411451,0.04842748,0.9162973,-24.8721,-3.513464,-63.91087,1008.834
2.825033665,-0.01781321,0.1221459,-0.1546357,0.4065886,0.04936008,0.9172716,-24.8721,-3.513464,-63.91087,1008.834
2.829963684,-0.07902604,0.06209945,-0.03271219,0.4070585,0.05178059,0.9177759,-24.8721,-3.513464,-63.91087,1008.834
2.834894180,0.04343319,0.002128404,-0.09363352,0.4114698,0.04600594,0.9172238,-24.8721,-3.513464,-63.91087,1008.834
2.839825153,-0.07902291,0.002127063,-0.1544783,0.4118816,0.05521439,0.9125568,-24.8721,-3.513464,-63.91087,1008.834
2.844755173,-0.01776848,0.1820161,-0.09343936,0.4158044,0.05039837,0.9139256,-24.8721,-3.513464,-63.91087,1008.834
2.849685669,0.1046715,-0.05799605,-0.03247707,0.4133889,0.04988446,0.9186966,-24.8721,-3.513464,-63.91087,1008.834
2.854615688,-0.2626038,-0.05797847,0.02844694,0.410933,0.05134368,0.9106051,-24.8552,-3.887383,-63.46761,1008.833
2.859546185,-0.07882442,0.121986,-0.03247454,0.411445,0.04843595,0.913434,-24.8552,-3.887383,-63.46761,1008.833
2.864476681,-0.1400374,0.06192078,-0.03245413,0.4153725,0.04265527,0.9138373,-24.8552,-3.887383,-63.46761,1008.833
2.869406700,-0.07872539,0.001931001,0.1503345,0.4090025,0.0493973,0.910109,-24.8552,-3.887383,-63.46761,1008.833
2.874337196,-0.07869516,0.301835,-0.03252819,0.4090188,0.0488952,0.9163073,-24.8552,-3.887383,-63.46761,1008.833
2.879267216,-0.01746017,-0.05821071,0.02841498,0.4124788,0.03877456,0.9109346,-24.8552,-3.887383,-63.46761,1008.833
2.884197712,0.1049411,0.06180301,0.08930074,0.414342,0.05183292,0.9163311,-24.8552,-3.887383,-63.46761,1008.833
2.889127731,0.2273425,0.001794454,-0.03252429,0.4100434,0.04212073,0.9190907,-24.8552,-3.887383,-63.46761,1008.833
2.894058704,0.1048093,0.001793321,0.02843802,0.4153271,0.04846725,0.9115182,-24.8552,-3.887383,-63.46761,1008.833
2.898989201,-0.07892858,-0.05817754,-0.0934636,0.4114381,0.05084054,0.918234,-24.8552,-3.887383,-63.46761,1008.833
2.903919220,-0.01765498,0.1817945,-0.03253956,0.415307,0.0499326,0.9067627,-24.48871,-3.510173,-63.47894,1008.833
2.908849716,-0.07884867,0.06175965,-0.09340358,0.4070753,0.04936188,0.917748,-24.48871,-3.510173,-63.47894,1008.833
2.913780212,-0.2012472,0.06175855,-0.03249872,0.4134348,0.04215588,0.9147896,-24.48871,-3.510173,-63.47894,1008.833
2.918710232,0.1049417,0.0617386,-0.03249744,0.4134623,0.03876402,0.9166594,-24.48871,-3.510173,-63.47894,1008.833
2.923640728,0.04370941,0.001692388,0.08934931,0.4085043,0.05372236,0.91875,-24.48871,-3.510173,-63.47894,1008.833
2.928566933,-0.01756131,-0.05835379,0.02840872,0.4104861,0.04745358,0.916288,-24.48871,-3.510173,-63.47894,1008.833
2.933497429,0.1048978,0.00163376,-0.09345461,0.4109828,0.04504655,0.9133958,-24.48871,-3.510173,-63.47894,1008.833
2.938427448,0.04366555,0.06160247,-0.0933959,0.4119336,0.04987202,0.9196537,-24.48871,-3.510173,-63.47894,1008.833
2.943357944,-0.0788484,-0.1183831,0.08937358,0.412883,0.05134662,0.913942,-24.48871,-3.510173,-63.47894,1008.833
2.948287964,0.04364919,0.001649562,0.02835641,0.4109798,0.04505078,0.9119642,-24.48871,-3.510173,-63.47894,1008.833
2.953218460,0.043641,0.1216257,0.08920392,0.4124351,0.04506323,0.9110072,-24.8552,-3.887383,-63.46761,1008.833
2.958149433,0.1048376,-0.05837877,-0.03264018,0.4114802,0.0440752,0.9157699,-24.8552,-3.887383,-63.46761,1008.833
2.965544701,-0.01755538,0.1216231,0.02835158,0.4119478,0.04697804,0.9167569,-24.8552,-3.887383,-63.46761,1008.833
2.970475197,-0.07874914,0.121509,0.08921823,0.4124092,0.04893176,0.911529,-24.8552,-3.887383,-63.46761,1008.833
2.975405216,-0.01751411,0.1214327,0.08918132,0.412467,0.04118622,0.9133486,-24.8552,-3.887383,-63.46761,1008.833
2.980335712,-0.01748388,0.06136781,0.02822169,0.4104908,0.04792602,0.9201112,-24.8552,-3.887383,-63.46761,1008.833
2.985265732,-0.2011257,0.0613481,0.08910757,0.4153569,0.04603017,0.917694,-24.8552,-3.887383,-63.46761,1008.833
2.990196228,-0.01740424,0.001320984,0.02816712,0.4138707,0.04989332,0.9167868,-24.8552,-3.887383,-63.46761,1008.833
2.995126724,-0.07859809,0.06125219,-0.09367691,0.4109421,0.04989386,0.9101111,-24.8552,-3.887383,-63.46761,1008.833
3.000056744,-0.01734392,0.1811909,-0.03271446,0.4070624,0.05177494,0.9196848,-24.49424,-3.888505,-63.91367,1008.833
3.004987240,0.04389099,0.2410656,0.1500552,0.4109364,0.05085994,0.9105995,-24.49424,-3.888505,-63.91367,1008.833
3.009917259,-0.01734138,0.1209559,0.02817284,0.4128602,0.05377381,0.9111067,-24.49424,-3.888505,-63.91367,1008.833
3.014847755,0.04391278,0.1208987,-0.03278673,0.4114699,0.04456883,0.9124349,-24.49424,-3.888505,-63.91367,1008.833
3.019777775,-0.07854362,0.06089073,0.08909848,0.4118991,0.05327377,0.9144434,-24.49424,-3.888505,-63.91367,1008.833
3.024708748,0.1051778,0.06087132,0.1499461,0.4109567,0.04652038,0.9057772,-24.49424,-3.888505,-63.91367,1008.833
3.029639244,0.04390693,0.1208217,-0.1547427,0.4085488,0.04647468,0.915803,-24.49424,-3.888505,-63.91367,1008.833
3.034569263,0.1663274,0.1207269,-0.03283824,0.4090245,0.04792912,0.9158189,-24.49424,-3.888505,-63.91367,1008.833
3.039499760,-0.07863472,0.0007492863,-0.03281761,0.4119224,0.04892997,0.9110526,-24.49424,-3.888505,-63.91367,1008.833
3.044429779,-0.01738053,0.1806768,0.02812575,0.40856,0.04358494,0.9114746,-24.49424,-3.888505,-63.91367,1008.833
3.049360275,0.04387365,0.0006164573,0.1499536,0.4158611,0.04409134,0.9200569,-24.8552,-3.887383,-63.46761,1008.833
3.054290771,-0.01732024,0.0006349124,0.02805215,0.4094631,0.05470473,0.9158961,-24.8552,-3.887383,-63.46761,1008.833
3.059220791,-0.07855261,0.1206117,0.08897641,0.4119472,0.04649995,0.9148424,-24.8552,-3.887383,-63.46761,1008.833
3.064151287,-0.1396696,0.0005587377,0.02801691,0.4080353,0.04890574,0.9105824,-24.8552,-3.887383,-63.46761,1008.833
3.069081306,0.04399406,0.06054696,-0.09382702,0.4109759,0.04745114,0.9181958,-24.8552,-3.887383,-63.46761,1008.833
3.074012280,-0.07844315,0.1204787,-0.0328262,0.4153555,0.04651109,0.9186541,-24.8552,-3.887383,-63.46761,1008.833
3.078941822,-0.01724679,-0.05952507,0.1499052,0.4128965,0.04941165,0.9139197,-24.8552,-3.887383,-63.46761,1008.833
3.083872795,0.04402654,0.1804666,0.02802298,0.4089647,0.05567749,0.9130448,-24.8552,-3.887383,-63.46761,1008.833
3.088803291,-0.01720591,0.06039496,0.08888984,0.4144247,0.04022025,0.9171516,-24.8552,-3.887383,-63.46761,1008.833
3.093733311,-0.07841913,0.06039471,-0.0329732,0.414813,0.05281491,0.9125236,-24.8552,-3.887383,-63.46761,1008.833
3.098663807,-0.01714583,0.0003870353,-0.03293335,0.4104231,0.05424859,0.9087306,-24.49992,-3.51238,-63.91794,1008.827
3.103593826,-0.01711583,-0.1196281,-0.0329318,0.4119571,0.04648582,0.9196146,-24.49992,-3.51238,-63.91794,1008.827
3.108524323,-0.1395339,0.1204202,-0.03291111,0.4094965,0.0489097,0.9124886,-24.49992,-3.51238,-63.91794,1008.827
3.113454819,-0.07826067,-0.05963998,0.08895504,0.4100031,0.04648854,0.9143687,-24.49992,-3.51238,-63.91794,1008.827
3.118384838,-0.139474,0.06037465,0.02797642,0.4119294,0.04892008,0.9143931,-24.49992,-3.51238,-63.91794,1008.827
3.123315811,0.04426647,-0.05960274,0.02797798,0.4085442,0.04600224,0.9119797,-24.49992,-3.51238,-63.91794,1008.827
3.128241539,-0.07819016,0.0003855862,0.08890229,0.4129035,0.04940176,0.9172602,-24.49992,-3.51238,-63.91794,1008.827
3.133172035,0.04426854,0.1203437,-0.03296076,0.4085392,0.04600931,0.9095936,-24.49992,-3.51238,-63.91794,1008.827
3.138103008,-0.07818808,-0.1796183,0.2107509,0.4119606,0.04456498,0.9148201,-24.49992,-3.51238,-63.91794,1008.829
3.145498276,-0.0781721,-0.0596415,0.08880255,0.4123699,0.05329816,0.9072842,-24.86073,-4.265714,-63.90233,1008.829
3.150427818,0.04432506,0.1203429,0.08870849,0.410987,0.0459985,0.9186563,-24.86073,-4.265714,-63.90233,1008.829
3.155358791,0.04427798,0.0002900921,0.08863362,0.4124028,0.04941974,0.9101029,-24.86073,-4.265714,-63.90233,1008.829
3.160289288,-0.07815941,0.0002899133,0.0276552,0.411441,0.0484416,0.9115251,-24.86073,-4.265714,-63.90233,1008.829
3.165219307,0.04428003,-0.05973653,0.02765696,0.4109857,0.04504231,0.9148275,-24.86073,-4.265714,-63.90233,1008.829
3.170154572,-0.01697181,0.0002518781,-0.03324487,0.4095131,0.04936519,0.9220385,-24.86073,-4.265714,-63.90233,1008.829
3.175079823,-0.07816593,-0.0597557,0.02773703,0.412947,0.0421555,0.9138361,-24.86073,-4.265714,-63.90233,1008.829
3.180010319,-0.01693127,0.0002704151,0.02773875,0.4099641,0.05181254,0.9134757,-24.86073,-4.265714,-63.90233,1008.829
3.184940815,0.166713,0.1202662,-0.1550278,0.4118932,0.05184514,0.9067912,-24.86073,-4.265714,-63.90233,1008.829
3.189870834,-0.01702537,-0.05969965,-0.09400763,0.4138544,0.05039543,0.9105886,-24.86073,-4.265714,-63.90233,1008.829
3.194801331,-0.1394627,-0.1196319,0.02785863,0.4109444,0.05084864,0.9144172,-24.48871,-3.510173,-63.47894,1008.829
3.199731350,0.04427774,0.1803296,0.08876387,0.4119394,0.04746885,0.9143764,-24.48871,-3.510173,-63.47894,1008.829
3.204662323,0.04423069,-0.05975682,-0.1549828,0.4134192,0.04553078,0.9186464,-24.48871,-3.510173,-63.47894,1008.829
3.209592819,-0.07818744,0.0002881475,-0.03311657,0.4124353,0.04602082,0.9143588,-24.48871,-3.510173,-63.47894,1008.829
3.214522839,0.04427126,0.1202463,0.02780784,0.4080361,0.05034143,0.9158486,-24.48871,-3.510173,-63.47894,1008.829
3.219453335,0.04428191,0.1802159,-0.2159006,0.4113922,0.05473733,0.9092116,-24.48871,-3.510173,-63.47894,1008.827
3.224383354,0.04427333,-0.05983283,0.08881046,0.4095243,0.04647544,0.9177101,-24.48871,-3.510173,-63.47894,1008.827
3.229317188,-0.07820253,0.0001556426,0.02785107,0.4133817,0.04893676,0.9120044,-24.48871,-3.510173,-63.47894,1008.827
3.234244347,-0.01694862,0.06016297,-0.03314659,0.415803,0.05087928,0.9148856,-24.48871,-3.510173,-63.47894,1008.827
3.239174366,-0.0168995,0.1800646,-0.1549712,0.407605,0.04163932,0.9128857,-24.48871,-3.510173,-63.47894,1008.827
3.244104862,-0.01688888,-0.0599651,0.08877879,0.4133691,0.05230742,0.9172928,-24.84952,-4.263507,-63.46333,1008.827
3.249034882,0.04434576,-0.06000281,0.1496266,0.4114577,0.04745999,0.9162862,-24.84952,-4.263507,-63.46333,1008.827
3.253965855,-0.0168869,4.23044E-05,0.08862902,0.4081322,0.0382309,0.9214356,-24.84952,-4.263507,-63.46333,1008.827
3.258898735,0.04429003,-0.05992746,-0.03323385,0.409511,0.04697331,0.9129435,-24.84952,-4.263507,-63.46333,1008.827
3.263826370,-0.01692335,-0.05988981,-0.03321298,0.4153425,0.04652945,0.9124503,-24.84952,-4.263507,-63.46333,1008.827
3.268756867,-0.01691272,0.1800644,0.02769235,0.413351,0.05376995,0.9134918,-24.84952,-4.263507,-63.46333,1008.827
3.273686886,0.04434116,6.096438E-05,0.2713468,0.4104532,0.051332,0.9134692,-24.84952,-4.263507,-63.46333,1008.827
3.278617382,-0.07813475,0.1200569,-0.09430271,0.4138651,0.04942229,0.9124863,-24.84952,-4.263507,-63.46333,1008.827
3.283547401,0.04434315,0.05999293,-0.03333987,0.4109127,0.05568325,0.9154274,-24.84952,-4.263507,-63.46333,1008.827
3.288477898,-0.01696643,-1.449138E-05,0.08854569,0.4119421,0.04794412,0.9172452,-24.84952,-4.263507,-63.46333,1008.827
3.293407917,-0.01691731,0.119925,-0.03335541,0.4075816,0.04598312,0.9162765,-24.49992,-3.51238,-63.91794,1008.827
3.298338413,-0.01692592,0.05989876,0.02758828,0.4119468,0.04697946,0.9162797,-24.49992,-3.51238,-63.91794,1008.827
3.303269386,-0.01687681,0.05987997,-0.03331351,0.4119406,0.04603034,0.9100648,-24.49992,-3.51238,-63.91794,1008.827
3.308198929,0.04431935,-0.0001650676,-0.03329258,0.4085367,0.04792874,0.9148653,-24.49992,-3.51238,-63.91794,1008.827
3.313129902,0.04429151,0.05984246,-0.03327167,0.4177608,0.04991332,0.9186887,-24.49992,-3.51238,-63.91794,1008.827
3.318059921,0.04424444,-0.06017229,-0.03323163,0.40998,0.04939524,0.9129705,-24.49992,-3.51238,-63.91794,1008.827
3.325455666,-0.01704051,-0.00018356,-0.03320031,0.4119194,0.04893421,0.9096209,-24.49992,-3.51238,-63.91794,1008.827
3.330381394,0.04419423,0.05976744,0.08866603,0.4109595,0.04939035,0.9167865,-24.49992,-3.51238,-63.91794,1008.827
3.335312367,-0.2007104,0.05976759,-0.0332543,0.4114598,0.04602006,0.9124517,-24.49992,-3.51238,-63.91794,1008.827
3.340242863,0.04431179,-0.0002585389,-0.03325254,0.4099455,0.05519168,0.9159008,-24.8552,-3.887383,-63.46761,1008.826
3.345172882,0.04430319,0.05971136,0.08863296,0.4099859,0.04938676,0.9158339,-24.8552,-3.887383,-63.46761,1008.826
3.350103378,-0.07811499,-0.1202542,-0.03324905,0.4138579,0.05086929,0.9139347,-24.8552,-3.887383,-63.46761,1008.826
3.355033398,0.04438214,-0.06022777,0.02767543,0.4099901,0.05033871,0.9210944,-24.8552,-3.887383,-63.46761,1008.826
3.359963894,-0.2005033,-0.06018993,0.0276389,0.4148638,0.04651636,0.9157916,-24.8552,-3.887383,-63.46761,1008.826
3.364893913,0.105685,-0.06017096,0.02765982,0.4124086,0.05084836,0.9177551,-24.8552,-3.887383,-63.46761,1008.826
3.369824410,-0.1391236,0.119776,-0.09420303,0.4128909,0.04894062,0.9096192,-24.8552,-3.887383,-63.46761,1008.826
3.374754906,-0.2002602,-0.0002952181,-0.09416299,0.4114527,0.04746706,0.9139,-24.8552,-3.887383,-63.46761,1008.826
3.379684925,-0.07768638,0.1196821,0.0277225,0.4133966,0.04891557,0.9191626,-24.8552,-3.887383,-63.46761,1008.826
3.384615898,-0.01641355,-0.0003890656,0.02772423,0.4075991,0.04404249,0.9181629,-24.8552,-3.887383,-63.46761,1008.826
3.389545441,0.04482078,-0.1803169,0.08864869,0.4133877,0.04892828,0.9148677,-24.49992,-3.51238,-63.91794,1008.826
3.394481182,-0.07763619,-0.1202904,-0.03325248,0.4080533,0.0474432,0.9143834,-24.49992,-3.51238,-63.91794,1008.826
3.399406910,-0.01642109,-0.06024509,-0.1550771,0.411918,0.04941512,0.910581,-24.49992,-3.51238,-63.91794,1008.826
3.404336929,0.1672613,-0.120177,0.02773115,0.409049,0.04454151,0.9162571,-24.49992,-3.51238,-63.91794,1008.826
3.409267426,-0.07770141,0.05980772,0.02773287,0.4138548,0.05231063,0.9172919,-24.49992,-3.51238,-63.91794,1008.826
3.414197445,0.1060387,0.1797661,-0.03320729,0.4109499,0.04892497,0.9105772,-24.49992,-3.51238,-63.91794,1008.826
3.419127941,-0.1388663,0.1197212,0.02773631,0.4158099,0.04847469,0.9100856,-24.49992,-3.51238,-63.91794,1008.826
3.424057961,-0.01640796,-0.06030092,0.08862249,0.4138938,0.04698663,0.918185,-24.49992,-3.51238,-63.91794,1008.824
3.428988457,0.04480714,-0.0002933033,-0.03324039,0.4090435,0.04407047,0.9119565,-24.49992,-3.51238,-63.91794,1008.824
3.433919430,0.04477899,-0.000293117,0.02768409,0.41438,0.04651033,0.9167469,-24.49992,-3.51238,-63.91794,1008.824
3.438848972,0.04478933,0.1196842,0.08858944,0.4065814,0.04841237,0.9105794,-24.48302,-3.886299,-63.47468,1008.824
3.443779945,0.04474195,-0.000349272,0.02759191,0.408994,0.05132521,0.9125174,-24.48302,-3.886299,-63.47468,1008.824
3.448709965,0.1059571,0.05965837,0.08849731,0.4094936,0.04891394,0.9110571,-24.48302,-3.886299,-63.47468,1008.824
3.453643799,-0.1389671,0.1196283,0.02755726,0.4134179,0.04457459,0.9148175,-24.48302,-3.886299,-63.47468,1008.824
3.458570957,0.1059971,0.05960228,-0.03332538,0.4085189,0.05034887,0.914416,-24.48302,-3.886299,-63.47468,1008.824
3.463500977,-0.1389464,0.05958368,0.02759916,0.4104854,0.04841259,0.9191623,-24.48302,-3.886299,-63.47468,1008.824
3.468431473,0.04477453,-0.06041206,0.02760096,0.4114476,0.04891123,0.9163029,-24.48302,-3.886299,-63.47468,1008.824
3.473361492,-0.01643915,-0.240321,0.2712172,0.413392,0.04844312,0.9153394,-24.48302,-3.886299,-63.47468,1008.824
3.478291988,-0.0164673,-0.1202117,-0.09437482,0.4095374,0.04501998,0.919125,-24.48302,-3.886299,-63.47468,1008.824
3.483222008,0.04474784,0.1197239,0.08839527,0.4110264,0.04019499,0.9181122,-24.48302,-3.886299,-63.47468,1008.824
3.488152504,0.1059438,-0.1202679,0.0883206,0.4070841,0.04695446,0.9139023,-24.8721,-3.513464,-63.91087,1008.824
3.495547772,-0.2613656,-0.1801997,-0.03356983,0.4153204,0.04943474,0.9115293,-24.8721,-3.513464,-63.91087,1008.824
3.500478745,0.04482257,0.1797884,-0.03356788,0.4157772,0.05331071,0.9106186,-24.8721,-3.513464,-63.91087,1008.824
3.505409241,-0.07759593,0.05973599,0.02737595,0.4104865,0.04697407,0.9148507,-24.8721,-3.513464,-63.91087,1008.824
3.510344505,0.04486239,-0.000308957,0.02741617,0.4100111,0.04647724,0.9181864,-24.8721,-3.513464,-63.91087,1008.824
3.515269756,-0.01638982,0.05969866,0.02737981,0.4109481,0.04988539,0.9129744,-24.8721,-3.513464,-63.91087,1008.824
3.520199776,0.04482527,0.1196309,-0.09446373,0.4148642,0.04603685,0.9143544,-24.8721,-3.513464,-63.91087,1008.824
3.525130272,-0.07765093,-0.0004025772,0.02738367,0.4119658,0.04312081,0.9124173,-24.8721,-3.513464,-63.91087,1008.824
3.530060768,0.1060314,0.05956741,-0.03353713,0.41336,0.05375724,0.9177868,-24.8721,-3.513464,-63.91087,1008.824
3.534986973,0.04477928,0.05956768,0.02738754,0.4119032,0.05183101,0.9115633,-24.8721,-3.513464,-63.91087,1008.824
3.539917469,-0.07775459,-0.06039036,-0.03351413,0.4129128,0.04890954,0.920118,-24.50385,-3.890398,-64.28996,1008.824
3.544847489,0.1671711,0.1195945,0.02741052,0.4124024,0.04989924,0.9115402,-24.50385,-3.890398,-64.28996,1008.824
3.549777985,0.1058998,0.1795079,-0.03351029,0.4085236,0.04938421,0.9134504,-24.50385,-3.890398,-64.28996,1008.824
3.554708004,-0.07780036,-0.0005328991,0.08835624,0.4114291,0.05085326,0.9139391,-24.50385,-3.890398,-64.28996,1008.824
3.559638500,-0.01654669,-0.06050229,0.02739713,0.4090206,0.04649767,0.9091212,-24.50385,-3.890398,-64.28996,1008.824
3.564569473,-0.01651706,0.2394221,0.08830266,0.409029,0.04600687,0.9115016,-24.50385,-3.890398,-64.28996,1008.824
3.569499016,-0.07771147,-0.0005884282,0.02736272,0.412449,0.04504345,0.9176881,-24.50385,-3.890398,-64.28996,1008.824
3.574429989,0.04476616,-0.0005692095,-0.09449995,0.4075428,0.04987001,0.9105945,-24.50385,-3.890398,-64.28996,1008.824
3.579360008,-0.07771001,0.05941973,-0.03355612,0.4133827,0.04893535,0.9124816,-24.50385,-3.890398,-64.28996,1008.824
3.584290505,-0.01647563,-0.0006438717,0.08832958,0.4099897,0.04842351,0.9143911,-24.87603,-3.891482,-64.28288,1008.825
3.589224339,0.1671683,-0.0006811619,0.02737049,0.4099987,0.0469737,0.9138971,-24.87603,-3.891482,-64.28288,1008.825
3.594151020,-0.01658954,-0.06068816,0.02739157,0.4095013,0.04794504,0.9115231,-24.87603,-3.891482,-64.28288,1008.825
3.599081516,0.228317,-0.06066888,-0.09447111,0.4090479,0.04598003,0.9205687,-24.87603,-3.891482,-64.28288,1008.825
3.604012013,0.1057255,-0.0006798841,0.08833732,0.4104966,0.04552284,0.9148339,-24.87603,-3.891482,-64.28288,1008.825
3.608942032,0.04447353,-0.06063034,-0.09446726,0.4114343,0.04940909,0.9115363,-24.87603,-3.891482,-64.28288,1008.825
3.613872051,-0.01679766,0.05934721,0.02741843,0.4119428,0.0469851,0.9143708,-24.87603,-3.891482,-64.28288,1008.825
3.618802548,-0.07801113,0.05938531,-0.03355981,0.4138476,0.05136292,0.9105998,-24.87603,-3.891482,-64.28288,1008.825
3.623733521,-0.07796213,-0.2405384,-0.09448061,0.4128834,0.05086711,0.9125048,-24.87603,-3.891482,-64.28288,1008.821
3.628663540,0.04445795,-0.0005083121,-0.155344,0.4114603,0.04793526,0.919155,-24.87603,-3.891482,-64.28288,1008.821
3.633594036,0.04448773,-0.0005079918,-0.09436195,0.4090381,0.04455705,0.9110077,-24.11085,-3.885214,-63.48176,1008.821
3.638524056,-0.01674502,0.05944321,-0.03343735,0.4099903,0.04890161,0.9163055,-24.11085,-3.885214,-63.48176,1008.821
3.643454552,0.04450876,-0.06053359,-0.0943008,0.4138831,0.04795977,0.9162874,-24.11085,-3.885214,-63.48176,1008.821
3.648385048,0.04446156,0.05942505,0.0275465,0.4119805,0.04214203,0.9162239,-24.11085,-3.885214,-63.48176,1008.821
3.653315067,0.1056577,-0.0005820096,0.02758661,0.4134083,0.04794102,0.9215375,-24.11085,-3.885214,-63.48176,1008.821
3.658245564,0.04440572,-0.06055138,0.02756928,0.4084924,0.05373931,0.9130234,-24.11085,-3.885214,-63.48176,1008.821
3.663175583,-0.01682696,-0.2404414,-0.09425523,0.410436,0.05423022,0.9149343,-24.11085,-3.885214,-63.48176,1008.821
3.668106079,-0.07804041,-0.06039998,0.02759204,0.4094767,0.05133265,0.9110849,-24.11085,-3.885214,-63.48176,1008.821
3.675501347,-0.01681978,-0.06034306,0.02758519,0.4162836,0.05232666,0.9172875,-24.11085,-3.885214,-63.48176,1008.821
3.680432320,0.2280869,-0.1802823,-0.09427762,0.4138848,0.04699934,0.9138901,-24.11085,-3.885214,-63.48176,1008.821
3.685362816,0.1055148,-0.240233,-0.03333393,0.4158189,0.04846198,0.9143806,-24.86642,-3.88959,-63.9066,1008.821
3.690292835,0.0442437,-0.0002220161,-0.09425487,0.4100323,0.04357337,0.9186302,-24.86642,-3.88959,-63.9066,1008.821
3.695223332,-0.0782129,-0.06017276,-0.0333112,0.4143329,0.05328274,0.916825,-24.86642,-3.88959,-63.9066,1008.821
3.700153351,0.1666554,-0.06011611,0.02761333,0.413888,0.045558,0.9105328,-24.86642,-3.88959,-63.9066,1008.821
3.705083847,-0.01708291,-0.1800367,0.08853786,0.4143716,0.04700113,0.9143665,-24.86642,-3.88959,-63.9066,1008.825
3.710013867,0.1053374,0.1199251,0.02757864,0.4124188,0.04939714,0.9177383,-24.86642,-3.88959,-63.9066,1008.825
3.714944363,0.04408567,-3.315881E-05,-0.0943033,0.40995,0.05326942,0.9115835,-24.86642,-3.88959,-63.9066,1008.825
3.719875336,-0.3232284,-0.1200291,-0.0333596,0.4153495,0.04651956,0.9157908,-24.86642,-3.88959,-63.9066,1008.825
3.724804878,0.04426103,-1.427159E-05,0.02760324,0.4153139,0.05135982,0.9148921,-24.86642,-3.88959,-63.9066,1008.825
3.729735851,-0.07819559,-1.426414E-05,0.02758589,0.4100045,0.04600763,0.9134088,-24.86642,-3.88959,-63.9066,1008.825
3.734661579,0.04428235,0.05997432,-0.03339245,0.4104912,0.04600942,0.9138851,-24.8721,-3.513464,-63.91087,1008.825
3.739592076,-0.01695026,-0.1200291,0.0275704,0.4134074,0.04650533,0.9162715,-24.8721,-3.513464,-63.91087,1008.825
3.744523049,-0.01695884,-0.2398932,-0.03333138,0.4056533,0.04499151,0.9200865,-24.8721,-3.513464,-63.91087,1008.823
3.749452591,0.1667046,0.06016275,0.0276123,0.4090407,0.04503231,0.9138765,-24.8721,-3.513464,-63.91087,1008.823
3.754383564,-0.01707215,-0.1198031,-0.03332778,0.4085271,0.05129516,0.9215853,-24.8721,-3.513464,-63.91087,1008.823
3.759313584,0.2890202,-0.2996936,0.08851949,0.4095449,0.04309348,0.9162395,-24.8721,-3.513464,-63.91087,1008.823
3.764244080,0.1051666,-0.179547,-0.09422778,0.4153226,0.05038951,0.9158354,-24.8721,-3.513464,-63.91087,1008.823
3.769174576,0.04389574,-0.2994302,-0.09420686,0.4099621,0.05181536,0.9125212,-24.8721,-3.513464,-63.91087,1008.823
3.774104595,0.04386817,0.1206403,-0.1550704,0.4109467,0.05036631,0.9139344,-24.8721,-3.513464,-63.91087,1008.823
3.779035091,0.04385984,-0.1793219,-0.1549921,0.4138855,0.04747744,0.9158046,-24.8721,-3.513464,-63.91087,1008.823
3.783965111,-0.01746868,-0.1192583,-0.09397203,0.4138839,0.04700075,0.9134129,-24.49992,-3.51238,-63.91794,1008.823
3.788895607,0.1049327,0.0007560663,0.02787506,0.4119139,0.05085788,0.913461,-24.49992,-3.51238,-63.91794,1008.823
3.793825626,-0.07878611,-0.2391234,0.08878029,0.4138845,0.04747885,0.9153274,-24.49992,-3.51238,-63.91794,1008.823
3.798756123,0.04365372,-0.1190336,0.02782092,0.4109831,0.04456704,0.9119586,-24.49992,-3.51238,-63.91794,1008.823
3.803687096,0.1660936,-0.05895144,-0.09404203,0.4056742,0.04113004,0.9171785,-24.49992,-3.51238,-63.91794,1008.823
3.808617115,0.1660085,-0.2388802,0.08876612,0.410497,0.04504334,0.9133967,-24.49992,-3.51238,-63.91794,1008.823
3.813547611,0.227109,-0.2987375,-0.215865,0.4110059,0.04213985,0.914794,-24.49992,-3.51238,-63.91794,1008.823
3.818477631,0.2881711,-0.238599,-0.1548259,0.4138956,0.04602621,0.9157878,-24.49992,-3.51238,-63.91794,1008.823
3.823408127,0.2879516,-0.0584833,0.02803963,0.4153352,0.04701884,0.910547,-24.49992,-3.51238,-63.91794,1008.823
3.828338146,0.3490139,0.001598556,-0.2156115,0.408985,0.05133792,0.9082224,-24.86642,-3.88959,-63.9066,1008.821
3.833268642,0.1651803,-0.1783493,-0.03274613,0.4138379,0.05233464,0.9091793,-24.86642,-3.88959,-63.9066,1008.821
3.838199139,0.1038525,-0.2982333,-0.2154364,0.4196301,0.05769428,0.9092302,-24.86642,-3.88959,-63.9066,1008.821
3.843129158,-0.07988479,0.001821559,-0.03255194,0.4166885,0.06154499,0.9092801,-24.86642,-3.88959,-63.9066,1008.821
3.850525379,-0.01870089,0.06177074,0.02836319,0.4099792,0.05035425,0.915845,-24.86642,-3.88959,-63.9066,1008.821
3.855454922,-0.07989392,0.06171308,0.02834537,0.4056902,0.04110743,0.924814,-24.86642,-3.88959,-63.9066,1008.821
3.860385895,0.04256585,0.06163663,0.0892503,0.4061796,0.03775269,0.9152298,-24.86642,-3.88959,-63.9066,1008.821
3.865315914,0.2262112,-0.1183113,-0.03259382,0.4076253,0.04113156,0.9209928,-24.86642,-3.88959,-63.9066,1008.821
3.870246410,0.1648066,0.001721349,-0.2153224,0.4095909,0.03775959,0.920473,-24.86642,-3.88959,-63.9066,1008.821
3.875176907,0.3483559,-0.1182192,-0.03243808,0.4099914,0.04746309,0.9119938,-24.86642,-3.88959,-63.9066,1008.821
3.880106926,0.1644842,-0.3580427,-0.2151668,0.4114236,0.05038223,0.9096386,-24.48302,-3.886299,-63.47468,1008.821
3.885037422,0.4092577,-0.2978103,-0.3368771,0.4196499,0.05527133,0.9106339,-24.48302,-3.886299,-63.47468,1008.821
3.889967442,0.225367,-0.237597,-0.03212832,0.4191001,0.06206454,0.9026002,-24.48302,-3.886299,-63.47468,1008.821
3.894897938,0.04159183,0.002431188,0.02883375,0.4195952,0.06157553,0.9054571,-24.48302,-3.886299,-63.47468,1008.821
3.899828911,-0.08092082,0.06239939,-0.1539335,0.4133286,0.05571764,0.9092192,-24.48302,-3.886299,-63.47468,1008.821
3.904763222,-0.08086998,0.182375,0.02887406,0.4196443,0.0548003,0.9063334,-24.48302,-3.886299,-63.47468,1008.821
3.909689426,-0.01961439,0.06230216,0.02883678,0.4133587,0.05280105,0.9139579,-24.48302,-3.886299,-63.47468,1008.821
3.914619446,-0.1420116,0.2422287,0.02876124,0.4066188,0.04500639,0.9172214,-24.48302,-3.886299,-63.47468,1008.821
3.919549942,-0.08071764,0.1221183,0.02878146,0.410043,0.04260023,0.9205279,-24.48302,-3.886299,-63.47468,1008.821
3.924479961,-0.01942367,0.1220604,-0.03217851,0.4110076,0.04261653,0.9171856,-24.48302,-3.886299,-63.47468,1008.821
3.929410458,-0.01941147,-0.05798201,0.02878359,0.4075872,0.04645415,0.9205769,-24.84952,-4.263507,-63.46333,1008.821
3.934337139,0.1030295,-0.05796443,-0.214868,0.4177304,0.05187231,0.9105984,-24.84952,-4.263507,-63.46333,1008.821
3.939267158,-0.141912,0.1819886,-0.03204139,0.4171919,0.05817048,0.9063768,-24.84952,-4.263507,-63.46333,1008.821
3.944197655,-0.01937484,0.3018326,0.1507278,0.4152883,0.05474885,0.9139767,-24.84952,-4.263507,-63.46333,1008.821
3.949127674,-0.1417915,0.4216955,0.08972953,0.413308,0.0590996,0.9106899,-24.84952,-4.263507,-63.46333,1008.821
3.954058170,-0.3253168,0.1215631,0.2114804,0.4070495,0.05179331,0.9134809,-24.84952,-4.263507,-63.46333,1008.821
4.052665234,-0.01754197,0.1208118,0.08948652,0.4143586,0.0484566,0.9129515,-24.48302,-3.886299,-63.47468,1008.82
4.055130005,-0.07876048,0.1807624,0.08945841,0.4056229,0.04695049,0.9119961,-24.48302,-3.886299,-63.47468,1008.82
4.126619816,-0.1995912,0.1194507,0.1493199,0.406197,0.03581207,0.9171163,-24.49992,-3.51238,-63.91794,1008.82
4.146341801,-0.1381544,-0.0007886216,0.0274245,0.4186936,0.05236952,0.9082161,-24.49992,-3.51238,-63.91794,1008.82
4.156198025,-0.1378655,0.2389594,0.1491399,0.4133734,0.05182226,0.9177645,-24.49992,-3.51238,-63.91794,1008.82
4.168524265,-0.2599819,0.1183999,0.08784909,0.4095378,0.04454047,0.9176878,-24.49992,-3.51238,-63.91794,1008.82
4.178384781,-0.07611783,0.1181947,-0.0340876,0.4133258,0.05667947,0.9111393,-24.8552,-3.887383,-63.46761,1008.82
4.180850029,-0.01486989,0.1781462,-0.09499963,0.4196842,0.05091199,0.9124926,-24.8552,-3.887383,-63.46761,1008.82
4.190710545,-0.2596704,0.3577751,0.08777311,0.4147808,0.05717142,0.9116194,-24.8552,-3.887383,-63.46761,1008.82
4.193175793,-0.3820368,0.2976741,0.1486683,0.4118434,0.05957938,0.9087893,-24.8552,-3.887383,-63.46761,1008.82
4.272060871,-0.3789038,0.2342203,-0.03554853,0.4138653,0.05037989,0.915838,-24.49424,-3.888505,-63.91367,1008.82
4.274526596,-0.3175608,0.2341467,0.2081536,0.4172492,0.05234154,0.9144226,-24.49424,-3.888505,-63.91367,1008.82
4.279457092,-0.256118,0.4139088,0.08617735,0.4138667,0.04989897,0.914878,-24.49424,-3.888505,-63.91367,1008.82
4.284387112,-0.3171619,0.5336071,0.329795,0.4085254,0.04842378,0.9110532,-24.49424,-3.888505,-63.91367,1008.82
4.289317608,-0.3781675,0.353325,0.3296261,0.4061394,0.04451521,0.9186484,-24.49424,-3.888505,-63.91367,1008.82
4.294247627,-0.5616596,0.4730425,0.08572809,0.4115176,0.03827452,0.9142713,-24.49424,-3.888505,-63.91367,1008.82
4.299178124,-0.1940204,0.4127756,0.02475149,0.4095604,0.04115568,0.9171715,-24.49424,-3.888505,-63.91367,1008.82
4.304108620,-0.1326552,0.4125163,0.02475508,0.4095561,0.04020374,0.911911,-24.49424,-3.888505,-63.91367,1008.82
4.309038639,-0.2549622,0.4122571,0.02475867,0.4109414,0.05085288,0.9129855,-24.49424,-3.888505,-63.91367,1008.82
4.313969135,-0.3772116,0.3520284,0.02474312,0.4152883,0.05474885,0.9139767,-24.49424,-3.888505,-63.91367,1008.821
4.318899155,-0.4381986,0.411777,0.0855929,0.4153489,0.04604148,0.9138763,-25.23859,-3.890673,-63.89952,1008.821
4.323829651,-0.3154946,0.4115748,0.1464619,0.4109724,0.04554018,0.9100609,-25.23859,-3.890673,-63.89952,1008.821
4.328759670,-0.3152579,0.4712295,0.2681579,0.4094868,0.04988142,0.9110682,-25.23859,-3.890673,-63.89952,1008.821
4.333690643,-0.3762839,0.5308843,0.08524037,0.4105177,0.04405608,0.9200666,-25.23859,-3.890673,-63.89952,1008.821
4.338621140,-0.3760475,0.4705811,0.02428322,0.402225,0.04884043,0.91966,-25.23859,-3.890673,-63.89952,1008.821
4.343551159,-0.3145872,0.1703803,0.2070553,0.4042374,0.03917556,0.9204994,-25.23859,-3.890673,-63.89952,1008.821
4.348477841,-0.1919031,0.5302047,0.1459834,0.4051782,0.04401517,0.921985,-25.23859,-3.890673,-63.89952,1008.821
4.353407383,-0.130597,0.1099893,0.1458917,0.4080721,0.04502166,0.91531,-25.23859,-3.890673,-63.89952,1008.821
4.358338356,-0.1917005,-0.01005699,-0.03692993,0.4129349,0.04360956,0.9128984,-25.23859,-3.890673,-63.89952,1008.821
4.363268852,-0.1915993,0.2898545,-0.03696415,0.4143906,0.04314249,0.9105041,-25.23859,-3.890673,-63.89952,1008.821
4.368198872,-0.2526837,0.1696764,-0.03696007,0.4148141,0.0528135,0.9130008,-24.12775,-3.511296,-63.92502,1008.821
4.373129368,-0.06889139,0.1695887,0.2066776,0.4167938,0.04798465,0.9143732,-24.12775,-3.511296,-63.92502,1008.821
4.380527496,-0.1299736,0.2893307,0.0238103,0.4085414,0.04696408,0.9138997,-24.12775,-3.511296,-63.92502,1008.821
4.385455132,-0.25234,0.2291792,0.1455834,0.4129577,0.04118236,0.9157338,-24.12775,-3.511296,-63.92502,1008.821
4.390385151,-0.06850938,0.289005,0.1455111,0.4144285,0.039257,0.9157088,-24.12775,-3.511296,-63.92502,1008.821
4.395315647,-0.1296903,0.1689028,-0.09825215,0.4124661,0.04358234,0.9210119,-24.12775,-3.511296,-63.92502,1008.821
4.400245667,-0.06840411,0.2887738,-0.03726769,0.4172718,0.04895676,0.9139063,-24.12775,-3.511296,-63.92502,1008.821
4.405176640,-0.007175587,0.2286227,0.02365932,0.4128559,0.05425896,0.910635,-24.12775,-3.511296,-63.92502,1008.821
4.410107136,-0.3744767,0.3484562,0.1454325,0.411419,0.05230449,0.9139558,-24.12775,-3.511296,-63.92502,1008.821
4.415042400,-0.1293839,0.2882676,0.08439928,0.4090164,0.04937752,0.91679,-24.48871,-3.510173,-63.47894,1008.821
4.419967651,-0.3129939,0.3480185,0.145269,0.4110204,0.04020347,0.9152489,-24.48871,-3.510173,-63.47894,1008.821
4.424897671,-0.06790116,0.1678907,0.08423585,0.4124973,0.03683253,0.9132984,-24.48871,-3.510173,-63.47894,1008.821
4.429828167,-0.2515113,0.2877812,-0.03762426,0.4061212,0.04741484,0.9196363,-24.48871,-3.510173,-63.47894,1008.821
4.434758663,-0.06770051,0.2876004,0.08424485,0.41,0.04792988,0.917726,-24.48871,-3.510173,-63.47894,1008.823
4.439688683,-0.1288435,0.04752197,0.08423021,0.4080355,0.04986333,0.9139341,-24.48871,-3.510173,-63.47894,1008.823
4.444619179,-0.1899673,0.3473596,0.02325455,0.4114092,0.05471331,0.9173242,-24.48871,-3.510173,-63.47894,1008.823
4.449549198,-0.1286625,0.2271643,0.1450663,0.4138846,0.04604175,0.9105384,-24.48871,-3.510173,-63.47894,1008.823
4.454480171,-0.1897864,0.3469799,0.02311053,0.4114357,0.04892818,0.9105763,-24.48871,-3.510173,-63.47894,1008.823
4.459409714,-0.312096,0.5266711,-0.03782672,0.407566,0.04696332,0.9119926,-24.48871,-3.510173,-63.47894,1008.823
4.464340687,-0.1894903,0.4663893,0.08400424,0.409016,0.04985703,0.9182273,-24.47734,-4.262423,-63.47041,1008.823
4.469271183,-0.1893521,0.4061077,0.08398975,0.4110159,0.04212572,0.9195662,-24.47734,-4.262423,-63.47041,1008.823
4.474201203,-0.1280091,0.2259246,0.02303338,0.4061041,0.04887597,0.9163126,-24.47734,-4.262423,-63.47041,1008.823
4.479131699,-0.1279287,0.4057672,0.08394165,0.4065933,0.04839542,0.9163061,-24.47734,-4.262423,-63.47041,1008.823
4.484061718,-0.1890531,0.2255843,0.205677,0.4090552,0.04309592,0.9143315,-24.47734,-4.262423,-63.47041,1008.823
4.488992214,-0.06648631,0.2254614,0.02283696,0.4061269,0.04405407,0.9110074,-24.47734,-4.262423,-63.47041,1008.823
4.493922711,-0.06642531,0.3452969,0.08372622,0.4104922,0.046008,0.9143623,-24.47734,-4.262423,-63.47041,1008.823
4.498852730,-0.06644128,0.2251028,0.1446155,0.4109923,0.04551192,0.9196053,-24.47734,-4.262423,-63.47041,1008.823
4.503783703,-0.1276043,0.1649729,-0.03818615,0.4090598,0.04356837,0.9181547,-24.47734,-4.262423,-63.47041,1008.823
4.508713246,-0.06633861,0.2248955,0.02276058,0.4143861,0.04506475,0.9148213,-24.47734,-4.262423,-63.47041,1008.823
4.513644219,-0.005072914,-0.01520011,-0.03817646,0.4090777,0.03971114,0.9138151,-25.2482,-3.892565,-64.2758,1008.823
4.518574715,0.0561543,-0.07517914,-0.03819076,0.4075804,0.04502693,0.9124475,-25.2482,-3.892565,-64.2758,1008.823
4.523504734,0.3009959,-0.07520729,0.2664278,0.4341862,0.06020917,0.9092318,-25.2482,-3.892565,-64.2758,1008.823
4.528435230,-0.06647965,0.3448165,0.0835879,0.3973345,0.04885499,0.9039207,-25.2482,-3.892565,-64.2758,1008.823
4.533365250,-0.495006,0.3445057,0.02251695,0.4297791,0.06693576,0.9150443,-25.2482,-3.892565,-64.2758,1008.823
4.538295746,-0.06612692,1.004069,0.6317111,0.3813902,0.0380899,0.9095534,-25.2482,-3.892565,-64.2758,1008.823
4.543225765,-0.3109045,0.0436779,0.2048359,0.4150921,0.02559675,0.9556378,-25.2482,-3.892565,-64.2758,1008.823
4.548152447,0.1178205,0.04374469,-0.03894547,0.3804857,0.02888813,0.9108809,-25.2482,-3.892565,-64.2758,1008.823
4.555547714,-0.004757807,0.2237823,-0.526061,0.4123393,0.05429955,0.8958423,-25.2482,-3.892565,-64.2758,1008.823
4.560478211,-0.1271644,0.5235092,-0.03848262,0.4302514,0.06887395,0.9150658,-24.13343,-3.13517,-63.92928,1008.825
4.565413475,-0.1883085,0.4632106,0.2051942,0.4001684,0.06287877,0.9121898,-24.13343,-3.13517,-63.92928,1008.825
4.570338726,-0.1882094,0.342999,0.448718,0.4255095,0.05335081,0.9187137,-24.13343,-3.13517,-63.92928,1008.825
4.575269222,-0.249296,0.5226738,0.2657444,0.4022639,0.04112172,0.9124125,-24.13343,-3.13517,-63.92928,1008.825
4.580199242,-0.004224077,0.4623757,0.326462,0.3937801,0.006688599,0.9220538,-24.13343,-3.13517,-63.92928,1008.825
4.585130215,0.05665639,-0.91752,-0.7094488,0.4397055,0.04035728,0.9271276,-24.13343,-3.13517,-63.92928,1008.825
4.590060711,0.5463938,1.122366,0.5092794,0.4033414,0.0876512,0.8857442,-24.13343,-3.13517,-63.92928,1008.825
4.594990730,-0.8005894,0.1020251,-0.5873819,0.4138928,0.04698804,0.9177078,-24.13343,-3.13517,-63.92928,1008.825
4.599921227,-0.1268339,1.421371,0.935711,0.3731748,0.04324358,0.9478068,-24.13343,-3.13517,-63.92928,1008.825
4.604851246,-0.06549172,-0.6786892,0.082358,0.3914524,0.00317619,0.9592419,-24.13343,-3.13517,-63.92928,1008.825
4.609781742,0.3629445,-0.4984102,-0.2223457,0.408549,0.04503758,0.9110142,-24.8874,-3.139231,-64.29141,1008.825
4.614711762,0.05667329,-0.3781011,-0.5266474,0.4187306,0.04321654,0.8952253,-24.8874,-3.139231,-64.29141,1008.825
4.619642258,0.1789511,0.7017612,-0.1608759,0.4355956,0.0679502,0.9121817,-24.8874,-3.139231,-64.29141,1008.825
4.624572754,-0.00481417,0.10151,0.02191684,0.3870716,0.06037066,0.91314,-24.8874,-3.139231,-64.29141,1008.825
4.629502773,0.05637441,0.1014462,0.3264785,0.432754,0.06112184,0.9245164,-24.8874,-3.139231,-64.29141,1008.825
4.634433746,-0.2497811,0.1013825,0.2044279,0.3943964,0.05222195,0.9039649,-24.8874,-3.139231,-64.29141,1008.825
4.639369011,-0.004785813,0.5811332,0.3261067,0.4169283,0.03246672,0.9270796,-24.8874,-3.139231,-64.29141,1008.825
4.644294262,0.117646,-0.4388869,-0.03963462,0.3814725,0.02839385,0.9166001,-24.8874,-3.139231,-64.29141,1008.825
4.649224758,0.3012441,-0.07871743,0.08229318,0.4188562,0.03154314,0.9165661,-24.8874,-3.139231,-64.29141,1008.825
4.654154778,1.403107,-0.9785154,-0.3441794,0.4674844,0.1004963,0.9382672,-24.8874,-3.139231,-64.29141,1008.825
4.659085274,0.545512,0.2818594,0.02180292,0.4097167,0.07419609,0.8693513,-24.86642,-3.88959,-63.9066,1008.825
4.664015293,-0.4342035,0.4614972,-0.4046699,0.4639926,0.1029985,0.90251,-24.86642,-3.88959,-63.9066,1008.825
4.668945789,-0.4337192,1.421043,1.362229,0.3618447,0.05009905,0.8949343,-24.86642,-3.88959,-63.9066,1008.825
4.673876286,-0.249717,0.1603717,0.8130493,0.4197003,0.000862886,0.9863644,-24.86642,-3.88959,-63.9066,1008.825
4.678806305,0.3014369,-0.3793812,0.3861751,0.3441126,0.01898415,0.9070172,-24.86642,-3.88959,-63.9066,1008.825
4.683737278,0.4236956,-0.7390367,-0.8932154,0.4683766,0.03669907,0.9193959,-24.86642,-3.88959,-63.9066,1008.825
4.688666821,0.2397958,0.3410335,-0.6489441,0.3966315,0.06831875,0.8645358,-24.86642,-3.88959,-63.9066,1008.825
4.693597794,-0.06639802,0.5207096,-0.4657874,0.4419013,0.0747106,0.9303825,-24.86642,-3.88959,-63.9066,1008.825
4.698527336,-0.005113058,0.1005756,0.08275244,0.4000565,0.07740659,0.9071078,-24.86642,-3.88959,-63.9066,1008.825
4.703458309,-0.06629539,0.400361,0.3263148,0.4277961,0.07224835,0.9136776,-24.86642,-3.88959,-63.9066,1008.825
4.708388806,0.9745931,0.04017806,0.8134917,0.4318074,0.06108011,0.9364486,-24.88347,-2.761215,-63.9194,1008.825
4.713318825,-0.06655826,-0.01968499,0.08211838,0.3707872,0.0225735,0.8979411,-24.88347,-2.761215,-63.9194,1008.825
4.718249321,-0.1890799,0.5798928,0.142779,0.4429156,0.06076615,0.9039722,-24.88347,-2.761215,-63.9194,1008.825
4.723179341,-0.4337033,1.059607,0.3865334,0.369355,0.01725966,0.8921557,-24.88347,-2.761215,-63.9194,1008.825
4.728109837,-0.3110405,0.8788245,0.3252338,0.4176088,0.01638776,0.9669807,-24.88347,-2.761215,-63.9194,1008.825
4.735505104,0.423633,-0.2610704,-0.6494728,0.3978208,0.05077339,0.9106231,-24.88347,-2.761215,-63.9194,1008.825
4.740435600,0.1785093,-0.08097836,-0.8926218,0.4428557,0.06995162,0.9059871,-24.88347,-2.761215,-63.9194,1008.825
4.745366574,0.300826,0.6388412,0.1435107,0.4161565,0.05969157,0.8806257,-24.88347,-2.761215,-63.9194,1008.825
4.750292301,-0.5565569,0.158682,-0.03936683,0.4011656,0.05566434,0.9001741,-24.88347,-2.761215,-63.9194,1008.825
4.755222798,-0.6176429,1.358147,1.117826,0.4307615,0.06453194,0.9121514,-24.88347,-2.761215,-63.9194,1008.825
4.760152817,-0.862151,0.8175658,0.2034935,0.3810476,0.01680906,0.9069228,-24.86642,-3.88959,-63.9066,1008.827
4.765083790,-0.5556431,1.536689,0.8123825,0.397228,0.01191215,0.9626722,-24.86642,-3.88959,-63.9066,1008.827
4.770013333,-0.1268221,-0.08366649,0.02001053,0.3438517,-0.003849626,0.9387293,-24.86642,-3.88959,-63.9066,1008.827
4.774944305,1.097642,-0.2635985,-0.1018475,0.4290675,0.03255393,0.9246715,-24.86642,-3.88959,-63.9066,1008.827
4.779874802,0.2399121,-0.7429646,-1.076241,0.3856224,0.04502252,0.8652427,-24.86642,-3.88959,-63.9066,1008.827
4.784804821,-0.2502039,1.236673,-0.5275474,0.4785571,0.1011908,0.8919628,-24.86642,-3.88959,-63.9066,1008.827
4.789735317,-0.8009859,1.116051,0.2038568,0.3869871,0.06288544,0.8807173,-24.86642,-3.88959,-63.9066,1008.827
4.794665337,-0.6169069,1.595032,1.117321,0.4182926,0.05080914,0.9439914,-24.86642,-3.88959,-63.9066,1008.827
4.799595833,-0.4328665,0.5144995,0.6902556,0.3485858,0.01024771,0.9264748,-24.86642,-3.88959,-63.9066,1008.827
4.804526329,0.5469705,0.2141769,0.3851892,0.4436729,0.0369148,0.9547601,-24.48871,-3.510173,-63.47894,1008.825
4.809456348,0.2406415,-0.1456065,-0.5895104,0.369839,0.01199678,0.8734821,-24.48871,-3.510173,-63.47894,1008.825
4.814387321,-0.3106028,0.9339401,-0.6502159,0.461291,0.07633384,0.9155706,-24.48871,-3.510173,-63.47894,1008.825
4.819316864,-0.3715933,0.8735156,0.2031109,0.3801546,0.06911226,0.8865287,-24.48871,-3.510173,-63.47894,1008.825
4.824247837,-0.004034936,0.7528955,0.6902503,0.4444213,0.06501786,0.9417198,-24.48871,-3.510173,-63.47894,1008.825
4.829177856,-0.06508332,0.5126379,0.7508352,0.3741244,0.03082804,0.8951665,-24.48871,-3.510173,-63.47894,1008.825
4.834108353,-0.3711048,0.8121456,0.08025165,0.4504207,0.03463984,0.9213148,-24.48871,-3.510173,-63.47894,1008.825
4.839038849,-0.1871611,0.8716428,-0.2242976,0.3890769,0.04832098,0.9024983,-24.48871,-3.510173,-63.47894,1008.825
4.843968868,-0.2481138,1.051004,0.2631678,0.4206291,0.06436716,0.9450977,-24.48871,-3.510173,-63.47894,1008.825
4.848899364,-0.2479002,0.3906771,0.1411953,0.3639278,0.03506498,0.9119376,-24.48871,-3.510173,-63.47894,1008.825
4.853829384,-0.3090454,0.4503637,0.3846827,0.4270222,0.04609722,0.9210135,-24.1107,-4.639671,-63.91222,1008.825
4.858759880,-0.3088897,0.3302355,-0.1028452,0.4110536,0.02961903,0.8955604,-24.1107,-4.639671,-63.91222,1008.825
4.863690853,-0.3699581,1.349608,0.07989192,0.4338116,0.04663714,0.9171891,-24.1107,-4.639671,-63.91222,1008.825
4.868620396,-0.492116,0.6890363,-0.1637153,0.379982,0.03513686,0.9233618,-24.1107,-4.639671,-63.91222,1008.825
4.873551369,-0.1858791,0.2086195,-0.1028428,0.4351936,0.06399653,0.9393392,-24.1107,-4.639671,-63.91222,1008.825
4.878480911,-0.06325664,0.688397,0.4455073,0.4014914,0.07936389,0.9028326,-24.1107,-4.639671,-63.91222,1008.825
4.883411884,-0.4916888,0.6279383,-0.04213531,0.4352157,0.05486474,0.9191902,-24.1107,-4.639671,-63.91222,1008.825
4.888342380,-0.3076887,1.047445,0.8106755,0.3905725,0.04636031,0.9144038,-24.1107,-4.639671,-63.91222,1008.825
4.893272400,-0.4299049,0.6868932,0.2619956,0.3976085,0.01541738,0.9235788,-24.1107,-4.639671,-63.91222,1008.825
4.898202896,-0.5521598,0.6864428,0.01810174,0.3877413,0.03520651,0.917144,-24.1107,-4.639671,-63.91222,1008.825
4.903132915,-0.1233218,0.3861064,-0.04277495,0.4033778,0.02703602,0.9337237,-24.49817,-4.266522,-64.28569,1008.825
4.908063412,-0.2456924,0.2658679,-0.286439,0.4075203,0.05564951,0.9192513,-24.49817,-4.266522,-64.28569,1008.825
4.915458679,-0.4291137,0.5055717,0.1401178,0.4079364,0.06197809,0.9069153,-24.49817,-4.266522,-64.28569,1008.825
4.920389175,-0.4289018,0.5652426,0.2009525,0.4187517,0.04797629,0.9215279,-24.49817,-4.266522,-64.28569,1008.825
4.925319195,-0.3061844,0.3849029,0.07901905,0.4056473,0.04499998,0.9172232,-24.49817,-4.266522,-64.28569,1008.825
4.930250168,-0.1223584,0.5046571,0.2616993,0.399332,0.04543782,0.9186718,-24.49817,-4.266522,-64.28569,1008.825
4.935180664,-0.3671584,0.3844006,0.01792054,0.4028267,0.03431015,0.92665,-24.49817,-4.266522,-64.28569,1008.825
4.940110683,0.0003587008,0.2042311,0.01785186,0.408074,0.04645594,0.9210533,-24.49817,-4.266522,-64.28569,1008.825
4.945041180,-0.1832559,0.3840874,-0.04310123,0.4158194,0.04654537,0.9081544,-24.49817,-4.266522,-64.28569,1008.825
4.949966907,-0.3056273,0.5637742,-0.1649005,0.3988003,0.0531632,0.9225796,-24.49817,-4.266522,-64.28569,1008.825
4.954897881,-0.3666208,0.383473,0.2006821,0.4022366,0.05169769,0.9349644,-24.48302,-3.886299,-63.47468,1008.825
4.959828377,-0.4888385,-0.03659365,0.2005752,0.3915497,0.04923246,0.926843,-24.48302,-3.886299,-63.47468,1008.825
4.964758396,-0.4272497,0.0834065,0.3222755,0.3994,0.04246756,0.9415447,-24.48302,-3.886299,-63.47468,1008.827
4.969688892,-0.24329,-0.2765208,0.2001893,0.4086255,0.04253411,0.9396192,-24.48302,-3.886299,-63.47468,1008.827
4.974618912,-0.4268284,-0.4562186,-0.1653963,0.4191947,0.05426674,0.9220768,-24.48302,-3.886299,-63.47468,1008.827
4.979549408,-0.7326419,-0.2160154,-0.1043697,0.4292958,0.07267674,0.9356324,-24.48302,-3.886299,-63.47468,1008.827
4.984479904,-0.9770393,-0.03595164,0.2002904,0.3951691,0.08986992,0.9349401,-24.48302,-3.886299,-63.47468,1008.827
4.989409924,-1.282526,-0.215876,0.6875082,0.4003085,0.05549548,0.9550555,-24.48302,-3.886299,-63.47468,1008.827
4.994340897,-1.03694,-1.115399,1.235266,0.4023119,0.04201152,0.9386705,-24.48302,-3.886299,-63.47468,1008.827
4.999270439,-0.9138982,-0.5748014,0.80805,0.4154057,0.03590265,0.9070781,-24.48302,-3.886299,-63.47468,1008.827
5.004201412,-1.158162,-0.514433,0.1984873,0.4096683,0.0266335,0.9203447,-24.49424,-3.888505,-63.91367,1008.827
5.009131432,-0.9126158,-0.5140909,0.3201124,0.4186184,0.06445039,0.9126505,-24.49424,-3.888505,-63.91367,1008.827
5.014061928,-1.27929,-0.1538365,0.320007,0.3918826,0.06286382,0.8988427,-24.49424,-3.888505,-63.91367,1008.827
5.018992424,-1.278429,-0.273717,1.172629,0.4110255,0.04259111,0.9257755,-24.49424,-3.888505,-63.91367,1008.827
5.023922443,-0.9715442,-0.8134234,1.110893,0.3876964,0.03910188,0.9085988,-24.49424,-3.888505,-63.91367,1008.827
5.028852940,-0.9096522,-0.6928976,0.805715,0.4150681,0.01317764,0.9020447,-24.49424,-3.888505,-63.91367,1008.827
5.033782959,-0.7866904,-0.5724851,0.561518,0.4188551,0.02292335,0.8868784,-24.49424,-3.888505,-63.91367,1008.827
5.038713455,-0.5413001,0.1476244,0.01301363,0.4124859,0.03110106,0.8884162,-24.49424,-3.888505,-63.91367,1008.827
5.043648720,-0.908208,-0.1523735,-0.047879,0.4003848,0.02952308,0.9041696,-24.49424,-3.888505,-63.91367,1008.825
5.048573971,-0.2955896,-0.452183,0.3175727,0.4055914,0.04651619,0.895288,-24.49424,-3.888505,-63.91367,1008.825
5.053504944,-0.2953462,-0.2119446,0.3783151,0.4046957,0.03490701,0.8927698,-24.50954,-3.514272,-64.29422,1008.825
5.058434963,-0.1728087,-0.3317886,0.4998655,0.4140062,0.02431568,0.895971,-24.50954,-3.514272,-64.29422,1008.825
5.063365459,-0.1114954,0.2681925,0.194976,0.4086428,0.02191397,0.8782958,-24.50954,-3.514272,-64.29422,1008.825
5.068295479,-0.0501821,0.3879635,-0.353298,0.4101855,0.0170127,0.9030526,-24.50954,-3.514272,-64.29422,1008.825
5.073229313,0.133483,0.4476895,-0.3531335,0.3960057,0.03094122,0.9056258,-24.50954,-3.514272,-64.29422,1008.825
5.078156471,0.378276,0.2074728,-0.4138152,0.3969617,0.03432253,0.9094808,-24.50954,-3.514272,-64.29422,1008.825
5.083086491,0.561672,0.02735786,0.01284648,0.4027785,0.03485746,0.905181,-24.50954,-3.514272,-64.29422,1008.825
5.090482235,0.3774323,0.3872258,-0.4135291,0.4216084,0.04711985,0.8904926,-24.50954,-3.514272,-64.29422,1008.827
5.095412254,0.5608287,0.5069409,-0.2305394,0.4192591,0.04076431,0.9076042,-24.50954,-3.514272,-64.29422,1008.827
5.100342751,0.4379899,0.5665545,-0.3522017,0.4070879,0.04599122,0.9124596,-25.22169,-4.264591,-63.45626,1008.827
5.105272770,0.4989387,0.6861756,-0.4128841,0.4090111,0.0522588,0.9239817,-25.22169,-4.264591,-63.45626,1008.827
5.110203743,0.5598494,0.4457903,-0.3517211,0.4046553,0.05077024,0.9268361,-25.22169,-4.264591,-63.45626,1008.827
5.115134239,0.6207216,0.325552,-0.1688276,0.4032243,0.04641258,0.9248797,-25.22169,-4.264591,-63.45626,1008.827
5.120064259,0.4366789,0.2053514,-0.1686833,0.4099879,0.05321575,0.9297177,-25.22169,-4.264591,-63.45626,1008.827
5.124994755,0.3751998,0.2651922,-0.1076163,0.4090085,0.05561534,0.9340423,-25.22169,-4.264591,-63.45626,1008.827
5.129924774,0.2525353,0.2050181,-0.3512014,0.4070859,0.05605235,0.9455045,-25.22169,-4.264591,-63.45626,1008.827
5.134855270,0.1911718,0.1448254,-0.1682317,0.4060347,0.06621727,0.9413285,-25.22169,-4.264591,-63.45626,1008.827
5.139785290,-0.05376744,0.02481378,-0.1072032,0.4089456,0.06719974,0.942766,-25.22169,-4.264591,-63.45626,1008.827
5.144715786,-0.2986298,-0.0351527,0.07559405,0.4156952,0.07402267,0.940923,-25.22169,-4.264591,-63.45626,1008.827
5.149642468,-0.4820565,0.02483912,0.2582574,0.4133306,0.06577313,0.9441731,-24.11654,-3.509089,-63.48602,1008.827
5.154572487,-0.726592,-0.1551045,0.379864,0.4157428,0.06916547,0.9475482,-24.11654,-3.509089,-63.48602,1008.827
5.159502983,-0.7872826,-0.2749466,0.3796828,0.4113946,0.06431331,0.9427282,-24.11654,-3.509089,-63.48602,1008.827
5.164433003,-0.725564,-0.4547961,0.3793869,0.4094433,0.067186,0.9484918,-24.11654,-3.509089,-63.48602,1008.827
5.169363499,-0.9087418,-0.9342494,0.4400904,0.4089193,0.06771597,0.9317956,-24.11654,-3.509089,-63.48602,1008.83
5.174294472,-1.214272,-0.7536967,0.744351,0.4462253,0.08247087,0.9333272,-24.11654,-3.509089,-63.48602,1008.83
5.179224014,-1.825576,-0.03349224,0.9266708,0.4010997,0.07108479,0.9203956,-24.11654,-3.509089,-63.48602,1008.83
5.184154987,-1.824448,-0.2734067,1.291568,0.4032856,0.04680451,0.9559043,-24.11654,-3.509089,-63.48602,1008.83
5.189085007,-1.456016,-0.9930224,1.16893,0.3873111,0.0341666,0.9405173,-24.11654,-3.509089,-63.48602,1008.83
5.194015503,-1.210167,-1.052368,1.046408,0.4052842,0.02949581,0.9242038,-24.11654,-3.509089,-63.48602,1008.83
5.198945999,-1.331835,-1.291605,0.7411556,0.4148885,0.04169164,0.9114409,-24.8552,-3.887383,-63.46761,1008.83
5.203876019,-1.63708,-1.110884,0.5579601,0.4220614,0.05579088,0.9039541,-24.8552,-3.887383,-63.46761,1008.83
5.208806515,-1.758442,-0.6303722,0.8621849,0.4215598,0.05581027,0.8963196,-24.8552,-3.887383,-63.46761,1008.83
5.213736534,-1.512499,-0.5100366,1.227199,0.4026873,0.04839803,0.9067687,-24.8552,-3.887383,-63.46761,1008.83
5.218667030,-1.511472,-0.6296369,1.104563,0.4018605,0.02998536,0.9146712,-24.8552,-3.887383,-63.46761,1008.83
5.223597050,-1.510542,-0.8691391,1.042889,0.4033275,0.02279675,0.8950191,-24.8552,-3.887383,-63.46761,1008.83
5.228527546,-1.264773,-0.3887033,0.9204077,0.4067492,0.01847822,0.8906678,-24.8552,-3.887383,-63.46761,1008.83
5.233458519,-1.325222,-0.3884591,0.4934661,0.4004674,0.01551572,0.8968495,-24.8552,-3.887383,-63.46761,1008.83
5.238388538,-0.8347321,-0.6281129,0.4321759,0.4028226,0.02808929,0.9036711,-24.8552,-3.887383,-63.46761,1008.83
5.243319035,-0.8954509,-0.5077034,0.4928654,0.4003303,0.03295308,0.8894149,-24.8552,-3.887383,-63.46761,1008.83
5.248249054,-0.6500308,-0.3274752,0.370672,0.4105437,0.03252393,0.8936859,-24.49424,-3.888505,-63.91367,1008.83
5.253179550,-0.7107887,-0.08740945,0.4313428,0.3951049,0.0169444,0.8925809,-24.49424,-3.888505,-63.91367,1008.83
5.258110046,-0.5266894,-0.3872221,0.3092455,0.4077819,0.01025534,0.8924801,-24.49424,-3.888505,-63.91367,1008.83
5.263040066,-0.1590913,-0.2669828,-0.05642783,0.4028397,0.02040167,0.885925,-24.49424,-3.888505,-63.91367,1008.83
5.270435333,0.08593541,-0.0268523,-0.2391237,0.3994186,0.0251983,0.8921907,-24.49424,-3.888505,-63.91367,1008.83
5.275365830,0.3920015,-0.2667521,-0.1780508,0.4154167,0.0320553,0.8993981,-24.49424,-3.888505,-63.91367,1008.83
5.280296326,0.3305312,0.09329046,-0.1779198,0.4143401,0.04417213,0.8895178,-24.49424,-3.888505,-63.91367,1008.83
5.285226345,0.3303621,0.5130765,0.004960194,0.414872,0.03740434,0.8889616,-24.49424,-3.888505,-63.91367,1008.83
5.290157318,0.4525833,0.3927959,-0.05596566,0.407162,0.03151706,0.8994074,-24.49424,-3.888505,-63.91367,1008.83
5.295086861,0.5135807,0.3325417,-0.3604868,0.407698,0.02713833,0.9089006,-24.88171,-3.515357,-64.28715,1008.83
5.300017834,0.6356677,0.5122608,-0.3602412,0.4115674,0.02814558,0.9041327,-24.88171,-3.515357,-64.28715,1008.83
5.304948330,0.7576972,0.4519693,-0.2991495,0.4052005,0.03727808,0.9099766,-24.88171,-3.515357,-64.28715,1008.83
5.309878349,0.6348308,0.5115797,-0.4207114,0.4013305,0.03818743,0.9209707,-24.88171,-3.515357,-64.28715,1008.83
5.314808846,0.6955983,0.4512886,-0.4204662,0.4085528,0.04646903,0.9177119,-24.88171,-3.515357,-64.28715,1008.83
5.319738865,0.6951613,0.5110313,-0.3592411,0.4080769,0.044057,0.9143444,-24.88171,-3.515357,-64.28715,1008.83
5.324669361,0.511091,0.4506463,-0.2981118,0.4056709,0.04400848,0.9253247,-24.88171,-3.515357,-64.28715,1008.83
5.329599857,0.6944035,0.2704729,-0.4198083,0.4110003,0.04550062,0.9234229,-24.88171,-3.515357,-64.28715,1008.828
5.334529877,0.5715385,0.4502687,-0.2976608,0.4143544,0.04989935,0.9158316,-24.88171,-3.515357,-64.28715,1008.828
5.339460850,0.6936275,0.4500235,-0.2974546,0.4114403,0.05179531,0.9225401,-24.88171,-3.515357,-64.28715,1008.828
5.344390392,0.4483534,0.3297637,-0.1145378,0.40999,0.05177581,0.9258833,-24.48302,-3.886299,-63.47468,1008.828
5.349317074,0.2644188,0.4494771,-0.1144467,0.4065951,0.0498297,0.9220493,-24.48302,-3.886299,-63.47468,1008.828
5.354247093,0.3254575,0.3892438,-0.1753167,0.4076255,0.04208916,0.9243444,-24.48302,-3.886299,-63.47468,1008.828
5.359177590,0.4477396,0.3290107,-0.1751874,0.4066682,0.03918876,0.9214494,-24.48302,-3.886299,-63.47468,1008.828
5.364108563,0.4474775,0.208808,-0.235981,0.4091204,0.03486099,0.9180543,-24.48302,-3.886299,-63.47468,1008.828
5.369038582,0.5084012,0.02867345,-0.2967555,0.4061718,0.03872159,0.9147637,-24.48302,-3.886299,-63.47468,1008.828
5.373969078,0.5080818,0.2085835,-0.1747236,0.4085643,0.04453689,0.9167351,-24.48302,-3.886299,-63.47468,1008.828
5.378899098,0.4465771,0.268441,-0.1136528,0.4032105,0.04499526,0.9134098,-24.48302,-3.886299,-63.47468,1008.828
5.383829594,0.3238485,0.1483329,-0.1745041,0.4090585,0.04261218,0.9143259,-24.48302,-3.886299,-63.47468,1008.828
5.388761520,0.6297459,0.1482397,-0.1743754,0.4090766,0.03731785,0.9051975,-24.48302,-3.886299,-63.47468,1008.828
5.393690109,0.4457167,0.1480712,-0.2351885,0.4081256,0.03776128,0.9166579,-24.88171,-3.515357,-64.28715,1008.828
5.398620606,0.4454367,0.2679742,-0.3569054,0.4056848,0.0377622,0.9109358,-24.88171,-3.515357,-64.28715,1008.828
5.403550625,0.5063616,0.2677682,-0.3566812,0.4032243,0.04258078,0.9119503,-24.88171,-3.515357,-64.28715,1008.828
5.408481121,0.444858,0.3875394,-0.3564954,0.4095654,0.03971152,0.9147688,-24.88171,-3.515357,-64.28715,1008.828
5.413411141,0.6282121,0.3272885,-0.234426,0.4047475,0.03483355,0.917585,-24.88171,-3.515357,-64.28715,1008.834
5.418347359,0.6890607,0.2670943,-0.2952015,0.4066943,0.03388313,0.9161388,-24.88171,-3.515357,-64.28715,1008.834
5.423272610,0.6274038,0.2069191,-0.3559387,0.4081149,0.03873441,0.9147602,-24.88171,-3.515357,-64.28715,1008.834
5.428202629,0.6882337,0.3267663,-0.3557151,0.4100936,0.03390699,0.9156554,-24.88171,-3.515357,-64.28715,1008.834
5.433133125,0.6265965,0.3265798,-0.3554916,0.4065954,0.04695549,0.9124716,-24.88171,-3.515357,-64.28715,1008.834
5.438063145,0.5649789,0.5663102,-0.3552683,0.4085557,0.04407009,0.911003,-24.88171,-3.515357,-64.28715,1008.834
5.445458889,0.8093426,0.4459502,-0.29403,0.4095292,0.04407368,0.9119557,-24.10124,-3.883322,-63.10548,1008.834
5.450388908,0.8088342,0.3857191,-0.3547489,0.4056851,0.0387198,0.9142874,-24.10124,-3.883322,-63.10548,1008.832
5.455319405,0.7471213,0.3855333,-0.2936224,0.4042003,0.04210204,0.9124202,-24.10124,-3.883322,-63.10548,1008.832
5.460250378,0.7466519,0.5052683,-0.1715734,0.4114981,0.04165507,0.9162192,-24.10124,-3.883322,-63.10548,1008.832
5.465183258,0.8073877,0.445,-0.2323309,0.4070985,0.04645518,0.9191461,-24.10124,-3.883322,-63.10548,1008.832
5.470110893,0.7456757,0.3847695,-0.5367412,0.4051954,0.04111695,0.9205199,-24.10124,-3.883322,-63.10548,1008.832
5.475040436,0.6840024,0.2645884,-0.4145968,0.406643,0.04209829,0.9190968,-24.10124,-3.883322,-63.10548,1008.832
5.479971409,0.6223679,0.3843993,-0.3534519,0.41048,0.04889916,0.9182134,-24.10124,-3.883322,-63.10548,1008.832
5.484901905,0.8056297,0.384139,-0.1705191,0.4090497,0.0450196,0.9181715,-24.10124,-3.883322,-63.10548,1008.832
5.489831925,0.5602853,0.3239845,-0.2312964,0.4075963,0.04500433,0.920083,-24.48871,-3.510173,-63.47894,1008.832
5.494762421,0.5598948,0.263717,-0.3529391,0.4104884,0.04840835,0.920594,-24.48871,-3.510173,-63.47894,1008.832
5.499692440,0.6819527,0.2635325,-0.3527174,0.4041888,0.04786599,0.9263263,-24.48871,-3.510173,-63.47894,1008.832
5.504622936,0.4366666,0.4433326,-0.2306312,0.4075828,0.0483764,0.9248942,-24.48871,-3.510173,-63.47894,1008.832
5.509552956,0.4363923,0.2031375,-0.1695636,0.4070869,0.05221913,0.9330523,-24.48871,-3.510173,-63.47894,1008.832
5.514483452,0.4973421,0.2030099,-0.1694571,0.4094979,0.05226059,0.9244581,-24.48871,-3.510173,-63.47894,1008.832
5.519414425,0.4358057,0.08292405,-0.04752428,0.4051333,0.05174235,0.9263692,-24.48871,-3.510173,-63.47894,1008.832
5.524343968,0.3131031,0.3227509,-0.2302435,0.4075539,0.05464388,0.9321249,-24.48871,-3.510173,-63.47894,1008.832
5.529274941,0.2517016,0.02268061,-0.1082534,0.409475,0.05851958,0.9345521,-24.48871,-3.510173,-63.47894,1008.832
5.544065952,-0.360532,-0.2173541,0.07448914,0.4113688,0.06674474,0.9384612,-24.87603,-3.891482,-64.28288,1008.832
5.544065952,-0.360532,-0.2173541,0.07448914,0.4113688,0.06674474,0.9384612,-24.87603,-3.891482,-64.28288,1008.832
5.548992157,-0.482792,-0.2172175,0.3181524,0.4089597,0.06574286,0.9446582,-24.87603,-3.891482,-64.28288,1008.832
5.553922653,-0.6049175,-0.2171187,0.3788753,0.4065565,0.0609007,0.9407891,-24.87603,-3.891482,-64.28288,1008.832
5.558852673,-0.8493952,-0.4568801,0.5004637,0.4138541,0.05949615,0.9412363,-24.87603,-3.891482,-64.28288,1008.832
5.563783169,-0.9713095,-0.5165628,0.4392073,0.4045964,0.062349,0.9374688,-24.87603,-3.891482,-64.28288,1008.832
5.568713188,-0.9706417,-0.5762269,0.6217188,0.4099571,0.05948604,0.935994,-24.87603,-3.891482,-64.28288,1008.832
5.573643685,-1.214928,-0.6358535,0.6822318,0.4056205,0.05365933,0.9335489,-24.87603,-3.891482,-64.28288,1008.832
5.578574181,-1.214145,-0.6354917,0.7426876,0.4055872,0.05562256,0.9240269,-24.87603,-3.891482,-64.28288,1008.832
5.583504200,-1.396997,-0.7549942,0.6203948,0.4076345,0.03824464,0.91571,-24.87603,-3.891482,-64.28288,1008.832
5.588434696,-1.334934,-0.8145086,0.6200242,0.4081032,0.03970896,0.9123853,-24.49424,-3.888505,-63.91367,1008.832
5.593364716,-1.089199,-0.6940573,0.741461,0.4076374,0.0358457,0.9090011,-24.49424,-3.888505,-63.91367,1008.832
5.598295689,-1.027272,-0.573663,0.4973234,0.4070994,0.04022726,0.8985534,-24.49424,-3.888505,-63.91367,1008.832
5.603226185,-1.087812,-0.5132764,0.7406636,0.4046701,0.03829604,0.8918544,-24.49424,-3.888505,-63.91367,1008.832
5.608156681,-1.087129,-0.4529653,0.6183912,0.4022948,0.03341432,0.9013474,-24.49424,-3.888505,-63.91367,1008.832
5.613086701,-0.841588,-0.5126882,0.4352727,0.4028483,0.02326316,0.8997977,-24.49424,-3.888505,-63.91367,1008.832
5.618016720,-0.7798544,-0.3324381,0.5567873,0.4023335,0.02473803,0.8907482,-24.49424,-3.888505,-63.91367,1008.832
5.625412464,-0.4118909,-0.1522722,0.1299758,0.3999113,0.02519161,0.8955303,-24.49424,-3.888505,-63.91367,1008.832
5.630342484,-0.2892034,-0.0921691,0.2517013,0.403328,0.02471195,0.9017224,-24.49424,-3.888505,-63.91367,1008.832
5.635275841,-0.2890025,-0.0921112,0.1905822,0.4042503,0.02909889,0.8927038,-24.11638,-4.263546,-63.91648,1008.832
5.640203953,-0.04398255,-0.2120117,0.0686744,0.4028023,0.02859705,0.8955641,-24.11638,-4.263546,-63.91648,1008.832
5.645133495,-0.04393568,-0.03195041,0.007708512,0.4081804,0.02379347,0.8959759,-24.11638,-4.263546,-63.91648,1008.832
5.650064469,0.4458072,0.08802797,-0.2359873,0.3993954,0.0319368,0.9037219,-24.11638,-4.263546,-63.91648,1008.832
5.654994011,0.2619127,-0.03198564,-0.1748972,0.4096099,0.03006914,0.9036812,-24.11638,-4.263546,-63.91648,1008.832
5.659924984,0.322953,0.3279659,-0.2966519,0.4091119,0.0329571,0.9075333,-24.11638,-4.263546,-63.91648,1008.832
5.664860249,0.3839549,0.147813,-0.052832,0.4056697,0.03922049,0.9085664,-24.11638,-4.263546,-63.91648,1008.832
5.669785500,0.4448992,0.2076899,-0.2355287,0.4042177,0.04016141,0.9143068,-24.11638,-4.263546,-63.91648,1008.832
5.674715996,0.444639,0.2675291,-0.1744389,0.4081462,0.03437931,0.9151872,-24.11638,-4.263546,-63.91648,1008.832
5.679647923,0.3831548,0.3273496,-0.1743867,0.4061429,0.04259437,0.9138539,-24.11638,-4.263546,-63.91648,1008.832
5.684576512,0.5665669,0.3871326,-0.2351808,0.4061574,0.04065798,0.9143088,-24.12775,-3.511296,-63.92502,1008.832
5.689506531,0.566211,0.2669688,-0.1741103,0.4037166,0.04449071,0.921516,-24.12775,-3.511296,-63.92502,1008.832
5.694437027,0.5046313,0.3268085,-0.2958464,0.4051451,0.04693599,0.9158148,-24.12775,-3.511296,-63.92502,1008.831
5.699368000,0.5655575,0.2066448,-0.1738342,0.4061227,0.04549682,0.9138874,-24.12775,-3.511296,-63.92502,1008.831
5.704297543,0.6264263,0.1465453,-0.2346286,0.4066323,0.04307142,0.9171991,-24.12775,-3.511296,-63.92502,1008.831
5.709228516,0.5035847,0.3263059,-0.2954422,0.4124182,0.04748194,0.9110351,-24.12775,-3.511296,-63.92502,1008.831
5.714158535,0.4420443,0.3260821,-0.4171021,0.4013187,0.03676728,0.9104552,-24.12775,-3.511296,-63.92502,1008.831
5.719089031,0.5029714,0.3258584,-0.2341101,0.4085457,0.04791603,0.9191602,-24.12775,-3.511296,-63.92502,1008.831
5.724019051,0.6862506,0.2657028,-0.2948667,0.4080339,0.04938665,0.9115425,-24.12775,-3.511296,-63.92502,1008.831
5.728949547,0.5022243,0.3854753,-0.2946814,0.4114941,0.04166072,0.9143103,-24.12775,-3.511296,-63.92502,1008.831
5.733880043,0.6243184,0.3252822,-0.2335735,0.406598,0.04743076,0.9153405,-24.8721,-3.513464,-63.91087,1008.831
5.738810063,0.6239839,0.2651082,-0.2942921,0.4129409,0.04360108,0.9157617,-24.8721,-3.513464,-63.91087,1008.831
5.743740559,0.439939,0.3848434,-0.3550491,0.4109921,0.04455433,0.9162536,-24.8721,-3.513464,-63.91087,1008.831
5.748666763,0.6232963,0.2646245,-0.1720387,0.4081008,0.0440231,0.9257975,-24.8721,-3.513464,-63.91087,1008.831
5.753599167,0.5004182,0.2044508,-0.1718541,0.4022579,0.04496201,0.9224787,-24.8721,-3.513464,-63.91087,1008.831
5.758527756,0.5613086,0.2043035,-0.2935533,0.4104766,0.05321471,0.9311485,-24.8721,-3.513464,-63.91087,1008.831
5.763457775,0.4385656,0.2641449,-0.2933689,0.4070896,0.0488626,0.9229918,-24.8721,-3.513464,-63.91087,1008.831
5.768388272,0.3770661,0.1440207,-0.04953193,0.4100009,0.04936557,0.9229921,-24.8721,-3.513464,-63.91087,1008.831
5.773321152,0.3156629,0.08394161,-0.2931535,0.4158246,0.05372242,0.9349622,-24.8721,-3.513464,-63.91087,1008.831
5.778249264,0.3154838,0.08388887,-0.232104,0.4046305,0.05320026,0.9230464,-24.8721,-3.513464,-63.91087,1008.831
5.783179760,0.1317097,0.02379106,-0.1710163,0.4133719,0.05757209,0.9364428,-24.8721,-3.513464,-63.91087,1008.831
5.788109779,0.07038373,0.1437533,0.0118402,0.4056001,0.05560419,0.9302307,-24.8721,-3.513464,-63.91087,1008.831
5.793040276,-0.1744604,0.08369322,0.0727555,0.4060914,0.05368373,0.9263898,-24.8721,-3.513464,-63.91087,1008.831
5.800435543,-0.235597,-0.09627599,0.01176422,0.4075269,0.05611912,0.9240289,-24.8721,-3.513464,-63.91087,1008.831
5.805366039,-0.2966537,0.02372396,0.07264129,0.4128452,0.06145861,0.9298073,-24.8721,-3.513464,-63.91087,1008.831
5.810296059,-0.4188769,-0.03622298,0.2553256,0.4071191,0.04546792,0.925816,-24.8721,-3.513464,-63.91087,1008.831
5.815226555,-0.6022859,0.02378835,0.07241612,0.4042056,0.04544727,0.9262984,-24.8721,-3.513464,-63.91087,1008.831
5.820156574,-0.4794979,-0.2761318,0.3769269,0.4090303,0.04935775,0.923471,-24.8721,-3.513464,-63.91087,1008.831
5.825088024,-0.3567487,-0.2759772,0.2548829,0.4017621,0.04257822,0.9095668,-24.8721,-3.513464,-63.91087,1008.831
5.830018043,-0.3565245,-0.2758227,0.1937618,0.4036994,0.04355712,0.9100518,-25.24427,-3.514548,-63.90379,1008.831
5.834947586,-0.4175438,-0.2156419,0.1327364,0.4061599,0.03873854,0.9090371,-25.24427,-3.514548,-63.90379,1008.831
5.839878559,-0.4172815,-0.1555367,0.07173032,0.4095924,0.03200977,0.9017946,-25.24427,-3.514548,-63.90379,1008.831
5.844808578,-0.1109377,-0.2153899,0.132608,0.4095123,0.04409769,0.903843,-25.24427,-3.514548,-63.90379,1008.831
5.849739075,-0.1720921,-0.03532656,0.1934666,0.4013265,0.03196657,0.8979918,-25.24427,-3.514548,-63.90379,1008.831
5.854669571,0.01168811,0.02468421,0.07151869,0.4110814,0.02718478,0.9007819,-25.24427,-3.514548,-63.90379,1008.831
5.859599590,0.1340903,0.144627,-0.05033344,0.4027939,0.03052496,0.8979725,-25.24427,-3.514548,-63.90379,1008.829
5.864530086,0.1340253,0.08450989,-0.05032096,0.4037962,0.02809288,0.9046239,-25.24427,-3.514548,-63.90379,1008.829
5.869460106,0.1951267,0.2044151,-0.1111738,0.4066775,0.03247004,0.9032372,-25.24427,-3.514548,-63.90379,1008.829
5.874390602,0.5010665,0.2043244,-0.1720076,0.4013267,0.03292417,0.9013435,-25.24427,-3.514548,-63.90379,1008.829
5.879321575,0.3782652,0.3241355,-0.2328031,0.408088,0.04260436,0.9148048,-24.49992,-3.51238,-63.91794,1008.829
5.884251118,0.4392708,0.2039735,-0.2935413,0.4037285,0.04064195,0.9143132,-24.49992,-3.51238,-63.91794,1008.829
5.889182091,0.3777901,0.08390594,-0.2323959,0.4080941,0.04115878,0.9128792,-24.49992,-3.51238,-63.91794,1008.829
5.894112110,0.4387191,0.2038115,-0.1713272,0.4070731,0.0484071,0.9134419,-24.49992,-3.51238,-63.91794,1008.829
5.899042606,0.4384435,0.2036458,-0.3539112,0.4071011,0.04693045,0.922015,-24.49992,-3.51238,-63.91794,1008.829
5.903972626,0.4382065,0.08359726,-0.2318816,0.4085078,0.05180151,0.9139555,-24.49992,-3.51238,-63.91794,1008.829
5.908903122,0.3767457,0.3834311,-0.231736,0.414326,0.05568732,0.921625,-24.49992,-3.51238,-63.91794,1008.829
5.913833618,0.07044658,0.2032433,-0.2315712,0.4109615,0.05178222,0.9258815,-24.49992,-3.51238,-63.91794,1008.829
5.918763638,0.3764263,0.08313849,-0.1095612,0.4099375,0.05903478,0.9250125,-24.49992,-3.51238,-63.91794,1008.829
5.923694134,0.1313514,0.2030634,-0.2313187,0.4090008,0.05275243,0.9206468,-24.49992,-3.51238,-63.91794,1008.829
5.933554649,0.1923912,0.02289913,-0.1093357,0.4075933,0.04884038,0.9315807,-24.50385,-3.890398,-64.28996,1008.829
5.938488007,-0.1138113,0.02292244,0.01257844,0.4090331,0.04839591,0.921551,-24.50385,-3.890398,-64.28996,1008.829
5.938488007,-0.1138113,0.02292244,0.01257844,0.4090331,0.04839591,0.921551,-24.50385,-3.890398,-64.28996,1008.829
5.943415642,-0.174983,0.02300227,-0.04833306,0.408056,0.05031317,0.9253929,-24.50385,-3.890398,-64.28996,1008.829
5.948341846,0.008741237,-0.1569591,0.1953117,0.4090222,0.05080615,0.9244422,-24.50385,-3.890398,-64.28996,1008.829
5.953271866,-0.1136546,-0.1568605,0.01243992,0.4041932,0.04594373,0.9220091,-24.50385,-3.890398,-64.28996,1008.829
5.958202839,0.07003117,0.08324892,0.1342393,0.4119481,0.05033034,0.9282491,-24.50385,-3.890398,-64.28996,1008.829
5.963133335,-0.236056,-0.09671257,0.134155,0.4080702,0.04741919,0.922496,-24.50385,-3.890398,-64.28996,1008.829
5.968063354,-0.297151,-0.3365873,0.01222522,0.411486,0.04310913,0.9152815,-24.50385,-3.890398,-64.28996,1008.829
5.975458622,-0.3581527,-0.03651571,0.07304075,0.4090562,0.04548921,0.9229492,-24.50385,-3.890398,-64.28996,1008.829
5.980389118,-0.2354989,-0.1564699,0.1338793,0.4041728,0.04788859,0.9186909,-24.86642,-3.88959,-63.9066,1008.827
5.985319614,-0.2965558,-0.1563339,0.3165252,0.4042359,0.03726178,0.9133188,-24.86642,-3.88959,-63.9066,1008.827
5.990249634,-0.2963502,-0.2761564,0.07263535,0.4061861,0.03582761,0.911867,-24.86642,-3.88959,-63.9066,1008.827
5.995180130,-0.3573688,-0.09605481,0.2553197,0.4090694,0.04020195,0.9114347,-24.86642,-3.88959,-63.9066,1008.827
6.000110149,-0.1735107,-0.155983,0.1333712,0.4052365,0.03195832,0.909438,-24.86642,-3.88959,-63.9066,1008.827
6.005040646,-0.05097292,-0.03596443,0.1333257,0.4075984,0.0411697,0.9081079,-24.86642,-3.88959,-63.9066,1008.827
6.009971619,0.07150716,-0.03586645,0.1941838,0.4095797,0.03681753,0.911872,-24.86642,-3.88959,-63.9066,1008.827
6.014901638,0.01025744,-0.2758171,-0.1714363,0.4056622,0.03875229,0.9033114,-24.86642,-3.88959,-63.9066,1008.827
6.019832611,-0.05097303,-0.03574603,0.07232405,0.411974,0.0402353,0.9066573,-24.86642,-3.88959,-63.9066,1008.827
6.024762154,0.01026378,0.02422731,-0.1104896,0.4061933,0.03294352,0.9056297,-24.86642,-3.88959,-63.9066,1008.827
6.029692650,0.1938909,0.2641098,-0.1104393,0.4022789,0.03726873,0.9066413,-23.73867,-3.88413,-63.48883,1008.827
6.034623146,0.3161787,0.02400848,0.01149467,0.4061884,0.03534528,0.9113842,-23.73867,-3.88413,-63.48883,1008.827
6.039553165,0.2547753,0.08400082,-0.2930497,0.4027906,0.0334034,0.9061186,-23.73867,-3.88413,-63.48883,1008.827
6.044483662,0.3157815,0.3838721,-0.1710584,0.4061474,0.0406721,0.9095367,-23.73867,-3.88413,-63.48883,1008.827
6.049413681,0.5604793,0.1437897,-0.1709701,0.4066178,0.04261311,0.9086037,-23.73867,-3.88413,-63.48883,1008.827
6.054344177,0.3152695,0.2636577,-0.292689,0.4075212,0.05325339,0.911588,-23.73867,-3.88413,-63.48883,1008.827
6.059274197,0.4987243,0.2635109,-0.1707171,0.4100058,0.04935851,0.9253782,-23.73867,-3.88413,-63.48883,1008.825
6.064204693,0.3147966,0.2033756,-0.1706481,0.4095215,0.04743728,0.9196302,-23.73867,-3.88413,-63.48883,1008.825
6.069139481,0.1921316,0.203229,-0.2923672,0.4036731,0.05173696,0.9249402,-23.73867,-3.88413,-63.48883,1008.825
6.074065685,0.3756445,0.2031013,-0.1703572,0.4080712,0.04741778,0.9229733,-24.8721,-3.513464,-63.91087,1008.825
6.078997612,0.2530374,0.2030114,-0.2311921,0.4061309,0.05027493,0.9339862,-24.8721,-3.513464,-63.91087,1008.825
6.083926201,0.06922559,-0.03701388,0.07350944,0.4027116,0.05027932,0.9249252,-24.8721,-3.513464,-63.91087,1008.825
6.088856697,0.1915532,-0.03700947,-0.1701894,0.4085307,0.05176902,0.9249315,-24.8721,-3.513464,-63.91087,1008.825
6.093787193,-0.05340552,-0.03696737,0.1344929,0.4090807,0.04353871,0.9281762,-24.8721,-3.513464,-63.91087,1008.825
6.098717213,0.007871293,-0.09693272,-0.04837894,0.4080975,0.04306974,0.9210142,-24.8721,-3.513464,-63.91087,1008.825
6.103647709,-0.05331921,-0.03682672,0.07349693,0.4070683,0.04937176,0.9144075,-24.8721,-3.513464,-63.91087,1008.825
6.108577728,-0.05330495,-0.096811,0.1343926,0.4090332,0.04695881,0.9167621,-24.8721,-3.513464,-63.91087,1008.825
6.113508225,-0.1757002,-0.03676161,-0.1093827,0.4066067,0.04406575,0.9081432,-24.8721,-3.513464,-63.91087,1008.825
6.118439198,0.0692485,-0.1567157,0.07339677,0.4061289,0.04405124,0.9119618,-24.8721,-3.513464,-63.91087,1008.825
6.123369217,0.007980973,-0.03664007,0.1951961,0.4066572,0.0368096,0.9080595,-24.50385,-3.890398,-64.28996,1008.825
6.128299713,-0.05322883,0.02333384,-0.04856003,0.406673,0.0343923,0.9075544,-24.50385,-3.890398,-64.28996,1008.825
6.133229733,0.3141295,0.0833266,0.07331596,0.4037412,0.03727128,0.9090248,-24.50385,-3.890398,-64.28996,1008.825
6.138160229,0.1302986,0.1432628,0.01242372,0.4037848,0.03241973,0.9137411,-24.50385,-3.890398,-64.28996,1008.825
6.143090725,0.06897345,0.02325221,-0.1094104,0.404691,0.03826637,0.9018759,-24.50385,-3.890398,-64.28996,1008.825
6.150482178,0.1911642,0.3230978,-0.1092691,0.4075875,0.04357994,0.9109992,-24.50385,-3.890398,-64.28996,1008.825
6.155412197,0.3134537,0.1429291,-0.2919303,0.4095159,0.04457155,0.9071891,-24.50385,-3.890398,-64.28996,1008.825
6.160342693,0.2520327,0.2028279,-0.2917852,0.4075772,0.04407357,0.9076642,-24.50385,-3.890398,-64.28996,1008.825
6.165273190,0.374284,0.2626514,-0.2915828,0.4114822,0.04167768,0.9085838,-24.50385,-3.890398,-64.28996,1008.825
6.170203209,0.4351959,0.142528,-0.3523032,0.4066735,0.03630749,0.9142578,-24.50385,-3.890398,-64.28996,1008.825
6.175133705,0.5573514,0.2624156,-0.2302747,0.4042001,0.04353914,0.917209,-24.49424,-3.888505,-63.91367,1008.825
6.180063725,0.4958349,0.1422548,-0.23013,0.4080577,0.04695805,0.9148551,-24.49424,-3.888505,-63.91367,1008.825
6.266345024,-0.05826434,-0.09840854,0.01478039,0.4129249,0.04745549,0.9210557,-24.12206,-3.887421,-63.92075,1008.824
6.268810272,-0.1806941,-0.09837762,0.1366212,0.4056576,0.04450635,0.9205581,-24.12206,-3.887421,-63.92075,1008.824
6.273740768,-0.2418046,0.08159338,0.1365545,0.4056493,0.04499716,0.9181776,-24.48856,-4.26463,-63.90941,1008.824
6.278670788,-0.05801908,-0.2783517,0.1364687,0.4076197,0.04066053,0.9166923,-24.48856,-4.26463,-63.90941,1008.824
6.283601284,-0.3641027,-0.1582562,0.07547942,0.4041773,0.04596633,0.9143737,-24.48856,-4.26463,-63.90941,1008.824
6.288531303,-0.0578116,0.08179756,0.1972583,0.4085499,0.04503617,0.9114914,-24.48856,-4.26463,-63.90941,1008.824
6.293461800,-0.1189801,-0.218159,0.07532722,0.4047007,0.04112645,0.9162259,-24.48856,-4.26463,-63.90941,1008.824
6.298391819,-0.05770053,0.2018038,0.07526076,0.4080441,0.04649832,0.9067368,-24.48856,-4.26463,-63.90941,1008.824
6.303322792,0.06478377,-0.09817159,0.07523262,0.4075824,0.04502411,0.913402,-24.48856,-4.26463,-63.90941,1008.822
6.308253288,-0.1188905,-0.03810249,-0.1075637,0.4110066,0.04261795,0.9167084,-24.48856,-4.26463,-63.90941,1008.822
6.313183308,-0.0576303,0.1418683,0.01431104,0.4071024,0.04405483,0.9129144,-24.48856,-4.26463,-63.90941,1008.822
6.318113804,0.06485395,-0.03811114,-0.1075434,0.409031,0.04600404,0.912456,-24.8874,-3.139231,-64.29141,1008.822
6.323043823,-0.1188589,0.02184484,0.07525408,0.4037293,0.03968294,0.9114388,-24.8874,-3.139231,-64.29141,1008.822
6.330439568,0.06479058,-0.03818317,-0.04660489,0.4085526,0.04551143,0.9143602,-24.8874,-3.139231,-64.29141,1008.822
6.335369587,0.06474987,-0.09812891,-0.1074601,0.4085866,0.0401945,0.9128672,-24.8874,-3.139231,-64.29141,1008.822
6.340300083,0.1871572,-0.1580935,-0.04646983,0.4037325,0.0406363,0.9162221,-24.8874,-3.139231,-64.29141,1008.822
6.345231056,0.1258541,0.2019184,0.01444383,0.4071343,0.04017782,0.915256,-24.8874,-3.139231,-64.29141,1008.822
6.350156784,0.1869606,0.1418595,-0.1683143,0.4056685,0.03826431,0.9047375,-24.8874,-3.139231,-64.29141,1008.822
6.355087280,0.3704383,0.02177439,-0.04640139,0.404205,0.04113737,0.9114546,-24.8874,-3.139231,-64.29141,1008.822
6.360022068,0.3090392,0.2016888,0.07549238,0.407115,0.04068417,0.907626,-24.8874,-3.139231,-64.29141,1008.822
6.364947796,0.3088643,0.1416112,-0.1681886,0.4071476,0.03584815,0.907093,-24.8874,-3.139231,-64.29141,1008.822
6.369877815,0.3698751,0.1415222,-0.2899092,0.4071642,0.03630364,0.9166429,-24.84952,-4.263507,-63.46333,1008.822
6.374808788,0.3084187,-0.03853244,-0.350669,0.4070883,0.04551171,0.9110224,-24.84952,-4.263507,-63.46333,1008.822
6.379739285,0.4306538,0.141401,-0.1676805,0.4046945,0.04017733,0.9100109,-24.84952,-4.263507,-63.46333,1008.822
6.384669304,0.36914,0.2613458,-0.2284979,0.4075862,0.04645556,0.9200997,-24.84952,-4.263507,-63.46333,1008.82
6.389600277,0.4913561,0.2612005,-0.04560528,0.4056283,0.04885863,0.9210855,-24.84952,-4.263507,-63.46333,1008.82
6.394529820,0.3686379,0.2010855,-0.2892484,0.4065861,0.05127952,0.9225433,-24.84952,-4.263507,-63.46333,1008.82
6.399460316,0.3684063,0.08100087,-0.1672404,0.4114251,0.05469071,0.9249597,-24.84952,-4.263507,-63.46333,1008.82
6.404390812,0.3069316,0.200946,-0.2280389,0.4095175,0.05127474,0.9306508,-24.84952,-4.263507,-63.46333,1008.82
6.409320831,0.1842715,0.08089913,-0.1060502,0.4109071,0.05904402,0.9240563,-24.84952,-4.263507,-63.46333,1008.82
6.414251328,0.06172689,0.08084831,0.07676551,0.4094895,0.0565832,0.935007,-24.84952,-4.263507,-63.46333,1008.82
6.419181347,0.06170735,-0.1591002,-0.1060318,0.4036317,0.059938,0.9326705,-24.48302,-3.886299,-63.47468,1008.82
6.424111843,-0.1832275,-0.2789963,0.07676475,0.4085095,0.0585047,0.9374171,-24.48302,-3.886299,-63.47468,1008.825
6.429042816,-0.3667652,-0.2187948,0.198562,0.4085035,0.05851317,0.9345539,-24.48302,-3.886299,-63.47468,1008.825
6.433972836,-0.3665156,-0.2786648,0.3202636,0.4065601,0.05897985,0.9359946,-24.48302,-3.886299,-63.47468,1008.825
6.438903332,-0.5499766,-0.3984669,0.1982552,0.4065948,0.05270391,0.9316271,-24.48302,-3.886299,-63.47468,1008.825
6.443833351,-0.7332454,-0.3982354,0.3199187,0.4104934,0.05079599,0.9311206,-24.48302,-3.886299,-63.47468,1008.825
6.448763847,-0.732804,-0.3380343,0.685235,0.4085788,0.0449952,0.9253306,-24.48302,-3.886299,-63.47468,1008.825
6.453693867,-0.6711197,-0.5777009,0.4411519,0.4095443,0.04261539,0.914325,-24.48302,-3.886299,-63.47468,1008.825
6.458624363,-0.7319413,-0.2774327,0.3799329,0.4066181,0.04596541,0.9200959,-24.48302,-3.886299,-63.47468,1008.825
6.463554859,-0.6702383,-0.5771636,0.2578487,0.4110294,0.03635895,0.9066144,-24.48302,-3.886299,-63.47468,1008.825
6.468484879,-0.5474076,-0.3968919,0.4404166,0.408592,0.03587613,0.9008867,-24.12206,-3.887421,-63.92075,1008.825
6.473415375,-0.6082685,-0.3966237,0.3183137,0.4052266,0.02814064,0.8917364,-24.12206,-3.887421,-63.92075,1008.825
6.478345394,-0.2406192,-0.2164465,0.2571718,0.4066899,0.02814178,0.8945971,-24.12206,-3.887421,-63.92075,1008.825
6.483276367,-0.3016536,-0.2163105,0.135203,0.4037754,0.02668544,0.8898135,-24.12206,-3.887421,-63.92075,1008.825
6.488206864,-0.1790737,-0.0362654,0.01327261,0.404285,0.02426004,0.8931252,-24.12206,-3.887421,-63.92075,1008.825
6.493136883,0.1883636,-0.03628031,-0.1086003,0.4047546,0.02572295,0.8902778,-24.12206,-3.887421,-63.92075,1008.825
6.498067379,0.1269828,0.1437271,-0.1085513,0.3994043,0.02569758,0.8869469,-24.12206,-3.887421,-63.92075,1008.825
6.502997398,0.3106136,0.2035688,-0.3521166,0.4110711,0.02767841,0.8974469,-24.12206,-3.887421,-63.92075,1008.825
6.510394573,0.6163449,0.4432559,-0.4736495,0.4066757,0.03343046,0.9056344,-24.12206,-3.887421,-63.92075,1008.826
6.515323162,0.8607961,0.5030037,-0.2906411,0.401799,0.03486235,0.901365,-24.12206,-3.887421,-63.92075,1008.826
6.520253658,0.6153592,0.322722,-0.5950339,0.406174,0.03728167,0.9109293,-24.12206,-3.887421,-63.92075,1008.826
6.525184631,0.9210736,0.5624359,-0.411911,0.4008027,0.04111776,0.9105063,-24.12206,-3.887421,-63.92075,1008.826
6.530114174,0.614394,0.3821357,-0.411614,0.4080319,0.04938948,0.910588,-24.12206,-3.887421,-63.92075,1008.826
6.535045147,0.7976224,0.3819144,-0.4113937,0.411975,0.0440657,0.920064,-24.12206,-3.887421,-63.92075,1008.826
6.539975166,0.6746925,0.6215912,-0.593846,0.4075234,0.05420816,0.915894,-24.12206,-3.887421,-63.92075,1008.826
6.544905663,0.7354543,0.3813029,-0.4716849,0.4099866,0.05225956,0.9258888,-24.12206,-3.887421,-63.92075,1008.826
6.549831391,0.7350307,0.141109,-0.3495048,0.4080711,0.04885488,0.9277622,-24.12206,-3.887421,-63.92075,1008.826
6.554762364,0.4897113,0.380937,-0.2274589,0.4099961,0.05416204,0.9368871,-24.12206,-3.887421,-63.92075,1008.826
6.559692860,0.5506084,0.3207279,-0.2273735,0.4075004,0.05950956,0.9226363,-24.12206,-3.887421,-63.92075,1008.826
6.564622879,0.3665904,0.3205453,-0.2881534,0.4090382,0.05317826,0.9402182,-24.50385,-3.890398,-64.28996,1008.826
6.569553375,0.4276419,0.1403971,-0.166146,0.4070208,0.06045548,0.9288522,-24.50385,-3.890398,-64.28996,1008.826
6.574483395,0.3050021,0.02038824,-0.1051189,0.4118867,0.05760203,0.9230834,-24.50385,-3.890398,-64.28996,1008.826
6.579413891,0.05995287,0.080364,0.07769624,0.4162913,0.05518956,0.9306831,-24.50385,-3.890398,-64.28996,1008.826
6.584344387,0.05995368,0.02028725,0.07766657,0.4007967,0.04735274,0.928713,-24.50385,-3.890398,-64.28996,1008.826
6.589274407,0.05995448,-0.09964611,0.01669503,0.4041725,0.05076279,0.9282687,-24.50385,-3.890398,-64.28996,1008.826
6.594204903,-0.001326442,-0.03961378,0.07762643,0.4037101,0.04641579,0.9248788,-24.50385,-3.890398,-64.28996,1008.826
6.599134922,-0.1237159,0.02038084,0.0775968,0.4071051,0.0469248,0.9239239,-24.50385,-3.890398,-64.28996,1008.826
6.604065418,-0.06243344,-0.1596165,0.07756719,0.4061166,0.0469424,0.915813,-24.50385,-3.890398,-64.28996,1008.826
6.608995438,-0.2460278,-0.03953911,-0.04430788,0.4070772,0.04696435,0.9105619,-24.50385,-3.890398,-64.28996,1008.826
6.613930702,-0.06223965,-0.0995217,0.01662356,0.4134207,0.04361276,0.9128975,-24.12775,-3.511296,-63.92502,1008.826
6.618856907,-0.06218132,-0.09953456,0.01661311,0.4037178,0.04161508,0.9124154,-24.12775,-3.511296,-63.92502,1008.826
6.623786926,-0.2457758,-0.09947203,-0.0443392,0.4080961,0.04115596,0.9138337,-24.12775,-3.511296,-63.92502,1008.826
6.628717423,0.06042172,0.08057503,0.1383995,0.4071067,0.04356968,0.9133861,-24.12775,-3.511296,-63.92502,1008.826
6.633647442,0.1216463,-0.09942247,-0.04443657,0.4066378,0.04114775,0.9133591,-24.12775,-3.511296,-63.92502,1008.826
6.638577938,-0.06206377,0.08053034,-0.04442779,0.4042438,0.03485578,0.908996,-24.12775,-3.511296,-63.92502,1008.826
6.643508434,0.06040404,0.08051744,-0.1053035,0.4046751,0.04212078,0.9071699,-24.12775,-3.511296,-63.92502,1008.826
6.648438454,0.1827372,0.02045944,0.01660815,0.4080763,0.04357891,0.9124299,-24.12775,-3.511296,-63.92502,1008.826
6.653368950,-0.06221598,0.08041631,0.01659771,0.405156,0.04452575,0.9129235,-24.12775,-3.511296,-63.92502,1008.826
6.658298969,0.1826807,-0.03953598,-0.1052582,0.4110309,0.03827273,0.9137949,-24.12775,-3.511296,-63.92502,1008.826
6.663229942,-0.06234937,0.2004055,0.01665341,0.4085545,0.04311391,0.9071741,-24.12206,-3.887421,-63.92075,1008.826
6.668160439,0.06011861,0.2002607,-0.2270097,0.4095793,0.03729704,0.9133092,-24.12206,-3.887421,-63.92075,1008.826
6.673090458,0.1213241,0.08015777,-0.04411804,0.4056306,0.0459816,0.9124622,-24.12206,-3.887421,-63.92075,1008.826
6.678020954,0.1212286,0.08008856,0.01683242,0.4075739,0.04695202,0.9158103,-24.12206,-3.887421,-63.92075,1008.826
6.685416222,0.1823192,0.01989263,-0.04404877,0.4042141,0.03968756,0.9109607,-24.12206,-3.887421,-63.92075,1008.826
6.690346718,0.3046142,-0.0400896,-0.1049247,0.4056171,0.04791657,0.9124845,-24.12206,-3.887421,-63.92075,1008.826
6.695276737,0.3656662,0.07987505,-0.1048396,0.4075735,0.04743152,0.9172475,-24.12206,-3.887421,-63.92075,1008.826
6.700207234,0.2429884,0.1397946,-0.1047355,0.4041342,0.05273309,0.9163607,-24.12206,-3.887421,-63.92075,1008.826
6.705137253,0.365303,0.01974847,-0.1046506,0.4056246,0.04982187,0.9225283,-24.12206,-3.887421,-63.92075,1008.826
6.710067749,0.3651312,-0.04027136,-0.104604,0.4109549,0.05131261,0.9211038,-24.87603,-3.891482,-64.28288,1008.828
6.714998722,0.1200442,0.07967456,-0.04361551,0.4090019,0.05131391,0.9163352,-24.87603,-3.891482,-64.28288,1008.828
6.719928742,0.2424168,0.2595525,-0.04358811,0.4046366,0.05175468,0.9211208,-24.87603,-3.891482,-64.28288,1008.828
6.724859238,0.1198357,0.1394123,-0.04356073,0.4104585,0.05467724,0.9273475,-24.87603,-3.891482,-64.28288,1008.828
6.729790211,0.3034517,-0.1005919,-0.04353336,0.4065885,0.05319189,0.9302011,-24.87603,-3.891482,-64.28288,1008.828
6.734719753,0.1196467,0.1393314,-0.1043905,0.4066031,0.0498184,0.9258671,-24.87603,-3.891482,-64.28288,1008.828
